itemnumber,itemtext,nbackInstruction,condsFile,square,loc1,loc2,corrAns,trialsNum,trialNum,wakeup.thisRepN,wakeup.thisTrialN,wakeup.thisN,wakeup.thisIndex,questions.thisRepN,questions.thisTrialN,questions.thisN,questions.thisIndex,nb_taskloop.thisRepN,nb_taskloop.thisTrialN,nb_taskloop.thisN,nb_taskloop.thisIndex,nb_trials.thisRepN,nb_trials.thisTrialN,nb_trials.thisN,nb_trials.thisIndex,key_resp_3.keys,key_resp_3.rt,key_resp_3.started,key_resp_3.stopped,text_4.started,text_4.stopped,mouse_2.x,mouse_2.y,mouse_2.leftButton,mouse_2.midButton,mouse_2.rightButton,mouse_2.started,mouse_2.stopped,h_eoec.started,h_eoec.stopped,text_2.started,text_2.stopped,key_resp.keys,key_resp.rt,key_resp.started,key_resp.stopped,text_3.started,text_3.stopped,key_resp_2.keys,key_resp_2.rt,key_resp_2.started,key_resp_2.stopped,img_whte.started,img_whte.stopped,img_black.started,img_black.stopped,text_5.started,text_5.stopped,key_resp_4.keys,key_resp_4.rt,key_resp_4.started,key_resp_4.stopped,mouse.x,mouse.y,mouse.leftButton,mouse.midButton,mouse.rightButton,mouse.started,mouse.stopped,h_arsq.started,h_arsq.stopped,slider.response,slider.rt,slider.started,slider.stopped,text.started,text.stopped,key_resp_9.keys,key_resp_9.started,key_resp_9.stopped,instrText.started,instrText.stopped,h_nback.started,h_nback.stopped,instrImg.started,instrImg.stopped,trialResp.keys,trialResp.rt,trialResp.started,trialResp.stopped,trialSquare.started,trialSquare.stopped,trialFix.started,trialFix.stopped,gridLine1.started,gridLine1.stopped,gridLine2.started,gridLine2.stopped,gridLine3.started,gridLine3.stopped,gridLine4.started,gridLine4.stopped,gridLine5.started,gridLine5.stopped,gridLine6.started,gridLine6.stopped,gridLine7.started,gridLine7.stopped,gridLine8.started,gridLine8.stopped,endText.started,endText.stopped,key_resp_5.keys,key_resp_5.rt,key_resp_5.started,key_resp_5.stopped,text_6.started,text_6.stopped,key_resp_6.keys,key_resp_6.rt,key_resp_6.started,key_resp_6.stopped,h_movie.started,h_movie.stopped,key_resp_8.keys,key_resp_8.rt,key_resp_8.started,key_resp_8.stopped,text_7.started,text_7.stopped,key_resp_7.keys,key_resp_7.started,key_resp_7.stopped,participant,session,date,expName,psychopyVersion,frameRate,
,,,,,,,,,,,,,,,,,,,,,,,,,,space,0.7082061230000818,5.263009919999831,None,,,,,,,,,,,,,,,,,,,,,,,,,,,,,,,,,,,,,,,,,,,,,,,,,,,,,,,,,,,,,,,,,,,,,,,,,,,,,,,,,,,,,,,,,,,,,,,,,,,,,,,,,,001,2022_aug_16_1115,new_task_ARSQ,2021.2.3,60.0125135692206,
,,,,,,,,,,,,,,,,,,,,,,,,,,,,,,5.263009919999831,None,-0.8888889,-0.49907407,0,0,0,3.286050036876986e-05,None,,,,,,,,,,,,,,,,,,,,,,,,,,,,,,,,,,,,,,,,,,,,,,,,,,,,,,,,,,,,,,,,,,,,,,,,,,,,,,,,,,,,,,,,,,,,,,,,,001,2022_aug_16_1115,new_task_ARSQ,2021.2.3,60.0125135692206,
,,,,,,,,,,,,,,,,,,,,,,,,,,,,,,,,,,,,,,,5.263009919999831,None,5.986428983999986,None,s,1.3504023519999464,5.986428983999986,None,,,,,,,,,,,,,,,,,,,,,,,,,,,,,,,,,,,,,,,,,,,,,,,,,,,,,,,,,,,,,,,,,,,,,,,,,,,,,,,,,,,,,,,,,001,2022_aug_16_1115,new_task_ARSQ,2021.2.3,60.0125135692206,
,,,,,,,,,,,,,,,,,,,,,,,,,,,,,,,,,,,,,,,,,,,,,,,7.353085620000002,None,s,0.5003040510000574,7.353085620000002,None,,,,,,,,,,,,,,,,,,,,,,,,,,,,,,,,,,,,,,,,,,,,,,,,,,,,,,,,,,,,,,,,,,,,,,,,,,,,,,,,,,,001,2022_aug_16_1115,new_task_ARSQ,2021.2.3,60.0125135692206,
,,,,,,,,,,0,0,0,0,,,,,,,,,,,,,,,,,,,,,,,,,,,,,,,,,,,,,,,,7.869605705999902,None,8.069619309000018,None,,,,,,,,,,,,,,,,,,,,,,,,,,,,,,,,,,,,,,,,,,,,,,,,,,,,,,,,,,,,,,,,,,,,,,,,,,,,,,,001,2022_aug_16_1115,new_task_ARSQ,2021.2.3,60.0125135692206,
,,,,,,,,,,1,0,1,0,,,,,,,,,,,,,,,,,,,,,,,,,,,,,,,,,,,,,,,,8.269600482999977,None,8.469477439999991,None,,,,,,,,,,,,,,,,,,,,,,,,,,,,,,,,,,,,,,,,,,,,,,,,,,,,,,,,,,,,,,,,,,,,,,,,,,,,,,,001,2022_aug_16_1115,new_task_ARSQ,2021.2.3,60.0125135692206,
,,,,,,,,,,2,0,2,0,,,,,,,,,,,,,,,,,,,,,,,,,,,,,,,,,,,,,,,,8.669610411999884,None,8.869582837999815,None,,,,,,,,,,,,,,,,,,,,,,,,,,,,,,,,,,,,,,,,,,,,,,,,,,,,,,,,,,,,,,,,,,,,,,,,,,,,,,,001,2022_aug_16_1115,new_task_ARSQ,2021.2.3,60.0125135692206,
,,,,,,,,,,3,0,3,0,,,,,,,,,,,,,,,,,,,,,,,,,,,,,,,,,,,,,,,,9.069564950999847,None,9.269586870000012,None,,,,,,,,,,,,,,,,,,,,,,,,,,,,,,,,,,,,,,,,,,,,,,,,,,,,,,,,,,,,,,,,,,,,,,,,,,,,,,,001,2022_aug_16_1115,new_task_ARSQ,2021.2.3,60.0125135692206,
,,,,,,,,,,,,,,,,,,,,,,,,,,,,,,,,,,,,,,,,,,,,,,,,,,,,,,,,,9.469898874999899,None,s,2.183550600999979,9.469898874999899,None,,,,,,,,,,,,,,,,,,,,,,,,,,,,,,,,,,,,,,,,,,,,,,,,,,,,,,,,,,,,,,,,,,,,,,,,,001,2022_aug_16_1115,new_task_ARSQ,2021.2.3,60.0125135692206,
,,,,,,,,,,,,,,,,,,,,,,,,,,,,,,,,,,,,,,,,,,,,,,,,,,,,,,,,,,,,,,,-0.8888889,-0.49907407,0,0,0,0.015437059499845418,None,,,,,,,,,,,,,,,,,,,,,,,,,,,,,,,,,,,,,,,,,,,,,,,,,,,,,,,,,,,,,,,,,,001,2022_aug_16_1115,new_task_ARSQ,2021.2.3,60.0125135692206,
21,I thought about my heartbeat,,,,,,,,,,,,,0,0,0,20,,,,,,,,,,,,,,,,,,,,,,,,,,,,,,,,,,,,,,,,,,,,,,,,,,,,,9.469898874999899,None,None,None,None,None,None,None,None,None,None,,,,,,,,,,,,,,,,,,,,,,,,,,,,,,,,,,,,,,,,,,,,,,,,,,,,,,,001,2022_aug_16_1115,new_task_ARSQ,2021.2.3,60.0125135692206,
17,I felt relaxed,,,,,,,,,,,,,0,1,1,16,,,,,,,,,,,,,,,,,,,,,,,,,,,,,,,,,,,,,,,,,,,,,,,,,,,,,,,None,None,None,None,None,None,None,None,None,,,,,,,,,,,,,,,,,,,,,,,,,,,,,,,,,,,,,,,,,,,,,,,,,,,,,,,001,2022_aug_16_1115,new_task_ARSQ,2021.2.3,60.0125135692206,
20,I thought about my breathing,,,,,,,,,,,,,0,2,2,19,,,,,,,,,,,,,,,,,,,,,,,,,,,,,,,,,,,,,,,,,,,,,,,,,,,,,,,None,None,None,None,None,None,None,None,None,,,,,,,,,,,,,,,,,,,,,,,,,,,,,,,,,,,,,,,,,,,,,,,,,,,,,,,001,2022_aug_16_1115,new_task_ARSQ,2021.2.3,60.0125135692206,
31,I had difficulty remembering my thoughts,,,,,,,,,,,,,0,3,3,30,,,,,,,,,,,,,,,,,,,,,,,,,,,,,,,,,,,,,,,,,,,,,,,,,,,,,,,None,None,None,None,None,None,None,None,None,,,,,,,,,,,,,,,,,,,,,,,,,,,,,,,,,,,,,,,,,,,,,,,,,,,,,,,001,2022_aug_16_1115,new_task_ARSQ,2021.2.3,60.0125135692206,
8,I thought about my behavior,,,,,,,,,,,,,0,4,4,7,,,,,,,,,,,,,,,,,,,,,,,,,,,,,,,,,,,,,,,,,,,,,,,,,,,,,,,None,None,None,None,None,None,None,None,None,,,,,,,,,,,,,,,,,,,,,,,,,,,,,,,,,,,,,,,,,,,,,,,,,,,,,,,001,2022_aug_16_1115,new_task_ARSQ,2021.2.3,60.0125135692206,
34,I had my eyes closed,,,,,,,,,,,,,0,5,5,33,,,,,,,,,,,,,,,,,,,,,,,,,,,,,,,,,,,,,,,,,,,,,,,,,,,,,,,None,None,None,None,None,None,None,None,None,,,,,,,,,,,,,,,,,,,,,,,,,,,,,,,,,,,,,,,,,,,,,,,,,,,,,,,001,2022_aug_16_1115,new_task_ARSQ,2021.2.3,60.0125135692206,
23,I thought about my health,,,,,,,,,,,,,0,6,6,22,,,,,,,,,,,,,,,,,,,,,,,,,,,,,,,,,,,,,,,,,,,,,,,,,,,,,,,None,None,None,None,None,None,None,None,None,,,,,,,,,,,,,,,,,,,,,,,,,,,,,,,,,,,,,,,,,,,,,,,,,,,,,,,001,2022_aug_16_1115,new_task_ARSQ,2021.2.3,60.0125135692206,
22,I felt ill,,,,,,,,,,,,,0,7,7,21,,,,,,,,,,,,,,,,,,,,,,,,,,,,,,,,,,,,,,,,,,,,,,,,,,,,,,,None,None,None,None,None,None,None,None,None,,,,,,,,,,,,,,,,,,,,,,,,,,,,,,,,,,,,,,,,,,,,,,,,,,,,,,,001,2022_aug_16_1115,new_task_ARSQ,2021.2.3,60.0125135692206,
13,I felt tired,,,,,,,,,,,,,0,8,8,12,,,,,,,,,,,,,,,,,,,,,,,,,,,,,,,,,,,,,,,,,,,,,,,,,,,,,,,None,None,None,None,None,None,None,None,None,,,,,,,,,,,,,,,,,,,,,,,,,,,,,,,,,,,,,,,,,,,,,,,,,,,,,,,001,2022_aug_16_1115,new_task_ARSQ,2021.2.3,60.0125135692206,
4,I thought about others,,,,,,,,,,,,,0,9,9,3,,,,,,,,,,,,,,,,,,,,,,,,,,,,,,,,,,,,,,,,,,,,,,,,,,,,,,,None,None,None,None,None,None,None,None,None,,,,,,,,,,,,,,,,,,,,,,,,,,,,,,,,,,,,,,,,,,,,,,,,,,,,,,,001,2022_aug_16_1115,new_task_ARSQ,2021.2.3,60.0125135692206,
26,I thought in images,,,,,,,,,,,,,0,10,10,25,,,,,,,,,,,,,,,,,,,,,,,,,,,,,,,,,,,,,,,,,,,,,,,,,,,,,,,None,None,None,None,None,None,None,None,None,,,,,,,,,,,,,,,,,,,,,,,,,,,,,,,,,,,,,,,,,,,,,,,,,,,,,,,001,2022_aug_16_1115,new_task_ARSQ,2021.2.3,60.0125135692206,
6,I thought about people I like,,,,,,,,,,,,,0,11,11,5,,,,,,,,,,,,,,,,,,,,,,,,,,,,,,,,,,,,,,,,,,,,,,,,,,,,,,,None,None,None,None,None,None,None,None,None,,,,,,,,,,,,,,,,,,,,,,,,,,,,,,,,,,,,,,,,,,,,,,,,,,,,,,,001,2022_aug_16_1115,new_task_ARSQ,2021.2.3,60.0125135692206,
24,I felt pain,,,,,,,,,,,,,0,12,12,23,,,,,,,,,,,,,,,,,,,,,,,,,,,,,,,,,,,,,,,,,,,,,,,,,,,,,,,None,None,None,None,None,None,None,None,None,,,,,,,,,,,,,,,,,,,,,,,,,,,,,,,,,,,,,,,,,,,,,,,,,,,,,,,001,2022_aug_16_1115,new_task_ARSQ,2021.2.3,60.0125135692206,
29,I thought in words,,,,,,,,,,,,,0,13,13,28,,,,,,,,,,,,,,,,,,,,,,,,,,,,,,,,,,,,,,,,,,,,,,,,,,,,,,,None,None,None,None,None,None,None,None,None,,,,,,,,,,,,,,,,,,,,,,,,,,,,,,,,,,,,,,,,,,,,,,,,,,,,,,,001,2022_aug_16_1115,new_task_ARSQ,2021.2.3,60.0125135692206,
19,I was conscious of my body,,,,,,,,,,,,,0,14,14,18,,,,,,,,,,,,,,,,,,,,,,,,,,,,,,,,,,,,,,,,,,,,,,,,,,,,,,,None,None,None,None,None,None,None,None,None,,,,,,,,,,,,,,,,,,,,,,,,,,,,,,,,,,,,,,,,,,,,,,,,,,,,,,,001,2022_aug_16_1115,new_task_ARSQ,2021.2.3,60.0125135692206,
25,I pictured events,,,,,,,,,,,,,0,15,15,24,,,,,,,,,,,,,,,,,,,,,,,,,,,,,,,,,,,,,,,,,,,,,,,,,,,,,,,None,None,None,None,None,None,None,None,None,,,,,,,,,,,,,,,,,,,,,,,,,,,,,,,,,,,,,,,,,,,,,,,,,,,,,,,001,2022_aug_16_1115,new_task_ARSQ,2021.2.3,60.0125135692206,
18,I felt happy,,,,,,,,,,,,,0,16,16,17,,,,,,,,,,,,,,,,,,,,,,,,,,,,,,,,,,,,,,,,,,,,,,,,,,,,,,,None,None,None,None,None,None,None,None,None,,,,,,,,,,,,,,,,,,,,,,,,,,,,,,,,,,,,,,,,,,,,,,,,,,,,,,,001,2022_aug_16_1115,new_task_ARSQ,2021.2.3,60.0125135692206,
3,I had difficulty holding on to my thoughts,,,,,,,,,,,,,0,17,17,2,,,,,,,,,,,,,,,,,,,,,,,,,,,,,,,,,,,,,,,,,,,,,,,,,,,,,,,None,None,None,None,None,None,None,None,None,,,,,,,,,,,,,,,,,,,,,,,,,,,,,,,,,,,,,,,,,,,,,,,,,,,,,,,001,2022_aug_16_1115,new_task_ARSQ,2021.2.3,60.0125135692206,
12,I thought about the future,,,,,,,,,,,,,0,18,18,11,,,,,,,,,,,,,,,,,,,,,,,,,,,,,,,,,,,,,,,,,,,,,,,,,,,,,,,None,None,None,None,None,None,None,None,None,,,,,,,,,,,,,,,,,,,,,,,,,,,,,,,,,,,,,,,,,,,,,,,,,,,,,,,001,2022_aug_16_1115,new_task_ARSQ,2021.2.3,60.0125135692206,
30,I imagined talking to myself,,,,,,,,,,,,,0,19,19,29,,,,,,,,,,,,,,,,,,,,,,,,,,,,,,,,,,,,,,,,,,,,,,,,,,,,,,,None,None,None,None,None,None,None,None,None,,,,,,,,,,,,,,,,,,,,,,,,,,,,,,,,,,,,,,,,,,,,,,,,,,,,,,,001,2022_aug_16_1115,new_task_ARSQ,2021.2.3,60.0125135692206,
7,I thought about my feelings,,,,,,,,,,,,,0,20,20,6,,,,,,,,,,,,,,,,,,,,,,,,,,,,,,,,,,,,,,,,,,,,,,,,,,,,,,,None,None,None,None,None,None,None,None,None,,,,,,,,,,,,,,,,,,,,,,,,,,,,,,,,,,,,,,,,,,,,,,,,,,,,,,,001,2022_aug_16_1115,new_task_ARSQ,2021.2.3,60.0125135692206,
16,I felt comfortable,,,,,,,,,,,,,0,21,21,15,,,,,,,,,,,,,,,,,,,,,,,,,,,,,,,,,,,,,,,,,,,,,,,,,,,,,,,None,None,None,None,None,None,None,None,None,,,,,,,,,,,,,,,,,,,,,,,,,,,,,,,,,,,,,,,,,,,,,,,,,,,,,,,001,2022_aug_16_1115,new_task_ARSQ,2021.2.3,60.0125135692206,
28,I had silent conversations,,,,,,,,,,,,,0,22,22,27,,,,,,,,,,,,,,,,,,,,,,,,,,,,,,,,,,,,,,,,,,,,,,,,,,,,,,,None,None,None,None,None,None,None,None,None,,,,,,,,,,,,,,,,,,,,,,,,,,,,,,,,,,,,,,,,,,,,,,,,,,,,,,,001,2022_aug_16_1115,new_task_ARSQ,2021.2.3,60.0125135692206,
1,I had busy thoughts,,,,,,,,,,,,,0,23,23,0,,,,,,,,,,,,,,,,,,,,,,,,,,,,,,,,,,,,,,,,,,,,,,,,,,,,,,,None,None,None,None,None,None,None,None,None,,,,,,,,,,,,,,,,,,,,,,,,,,,,,,,,,,,,,,,,,,,,,,,,,,,,,,,001,2022_aug_16_1115,new_task_ARSQ,2021.2.3,60.0125135692206,
33,I felt motivated to participate,,,,,,,,,,,,,0,24,24,32,,,,,,,,,,,,,,,,,,,,,,,,,,,,,,,,,,,,,,,,,,,,,,,,,,,,,,,None,None,None,None,None,None,None,None,None,,,,,,,,,,,,,,,,,,,,,,,,,,,,,,,,,,,,,,,,,,,,,,,,,,,,,,,001,2022_aug_16_1115,new_task_ARSQ,2021.2.3,60.0125135692206,
9,I thought about myself,,,,,,,,,,,,,0,25,25,8,,,,,,,,,,,,,,,,,,,,,,,,,,,,,,,,,,,,,,,,,,,,,,,,,,,,,,,None,None,None,None,None,None,None,None,None,,,,,,,,,,,,,,,,,,,,,,,,,,,,,,,,,,,,,,,,,,,,,,,,,,,,,,,001,2022_aug_16_1115,new_task_ARSQ,2021.2.3,60.0125135692206,
35,I was able to rate the statements,,,,,,,,,,,,,0,26,26,34,,,,,,,,,,,,,,,,,,,,,,,,,,,,,,,,,,,,,,,,,,,,,,,,,,,,,,,None,None,None,None,None,None,None,None,None,,,,,,,,,,,,,,,,,,,,,,,,,,,,,,,,,,,,,,,,,,,,,,,,,,,,,,,001,2022_aug_16_1115,new_task_ARSQ,2021.2.3,60.0125135692206,
14,I felt sleepy,,,,,,,,,,,,,0,27,27,13,,,,,,,,,,,,,,,,,,,,,,,,,,,,,,,,,,,,,,,,,,,,,,,,,,,,,,,None,None,None,None,None,None,None,None,None,,,,,,,,,,,,,,,,,,,,,,,,,,,,,,,,,,,,,,,,,,,,,,,,,,,,,,,001,2022_aug_16_1115,new_task_ARSQ,2021.2.3,60.0125135692206,
11,I thought about solving problems,,,,,,,,,,,,,0,28,28,10,,,,,,,,,,,,,,,,,,,,,,,,,,,,,,,,,,,,,,,,,,,,,,,,,,,,,,,None,None,None,None,None,None,None,None,None,,,,,,,,,,,,,,,,,,,,,,,,,,,,,,,,,,,,,,,,,,,,,,,,,,,,,,,001,2022_aug_16_1115,new_task_ARSQ,2021.2.3,60.0125135692206,
15,I had difficulty staying awake,,,,,,,,,,,,,0,29,29,14,,,,,,,,,,,,,,,,,,,,,,,,,,,,,,,,,,,,,,,,,,,,,,,,,,,,,,,None,None,None,None,None,None,None,None,None,,,,,,,,,,,,,,,,,,,,,,,,,,,,,,,,,,,,,,,,,,,,,,,,,,,,,,,001,2022_aug_16_1115,new_task_ARSQ,2021.2.3,60.0125135692206,
27,I pictured places,,,,,,,,,,,,,0,30,30,26,,,,,,,,,,,,,,,,,,,,,,,,,,,,,,,,,,,,,,,,,,,,,,,,,,,,,,,None,None,None,None,None,None,None,None,None,,,,,,,,,,,,,,,,,,,,,,,,,,,,,,,,,,,,,,,,,,,,,,,,,,,,,,,001,2022_aug_16_1115,new_task_ARSQ,2021.2.3,60.0125135692206,
2,I had rapidly switching thoughts,,,,,,,,,,,,,0,31,31,1,,,,,,,,,,,,,,,,,,,,,,,,,,,,,,,,,,,,,,,,,,,,,,,,,,,,,,,None,None,None,None,None,None,None,None,None,,,,,,,,,,,,,,,,,,,,,,,,,,,,,,,,,,,,,,,,,,,,,,,,,,,,,,,001,2022_aug_16_1115,new_task_ARSQ,2021.2.3,60.0125135692206,
10,I thought about things I need to do,,,,,,,,,,,,,0,32,32,9,,,,,,,,,,,,,,,,,,,,,,,,,,,,,,,,,,,,,,,,,,,,,,,,,,,,,,,None,None,None,None,None,None,None,None,None,,,,,,,,,,,,,,,,,,,,,,,,,,,,,,,,,,,,,,,,,,,,,,,,,,,,,,,001,2022_aug_16_1115,new_task_ARSQ,2021.2.3,60.0125135692206,
32,I had difficulty remembering my feelings,,,,,,,,,,,,,0,33,33,31,,,,,,,,,,,,,,,,,,,,,,,,,,,,,,,,,,,,,,,,,,,,,,,,,,,,,,,None,None,None,None,None,None,None,None,None,,,,,,,,,,,,,,,,,,,,,,,,,,,,,,,,,,,,,,,,,,,,,,,,,,,,,,,001,2022_aug_16_1115,new_task_ARSQ,2021.2.3,60.0125135692206,
5,I placed myself in other peoples shoes,,,,,,,,,,,,,0,34,34,4,,,,,,,,,,,,,,,,,,,,,,,,,,,,,,,,,,,,,,,,,,,,,,,,,,,,,,,None,None,None,None,None,None,None,None,None,,,,,,,,,,,,,,,,,,,,,,,,,,,,,,,,,,,,,,,,,,,,,,,,,,,,,,,001,2022_aug_16_1115,new_task_ARSQ,2021.2.3,60.0125135692206,
,,1,nBack1Cond.xlsx,6,0.2,0,None,1,1,,,,,,,,,0,0,0,0,0,0,0,0,,,,,,,,,,,,,,,,,,,,,,,,,,,,,,,,,,,,,,,,,,,,,,,,,,,,,,,,12.24905147200002,None,12.24905147200002,None,12.24905147200002,None,s,1.3559503339999992,14.547122519999903,None,14.547122519999903,15.552793015999896,15.536215099999936,None,14.547122519999903,None,14.547122519999903,None,14.547122519999903,None,14.547122519999903,None,14.547122519999903,None,14.547122519999903,None,14.547122519999903,None,14.547122519999903,None,,,,,,,,,,,,,,,,,,,,,,,,,001,2022_aug_16_1115,new_task_ARSQ,2021.2.3,60.0125135692206,
,,2,nBack2Cond.xlsx,5,0,0,None,2,61,,,,,,,,,0,1,1,1,0,0,0,0,,,,,,,,,,,,,,,,,,,,,,,,,,,,,,,,,,,,,,,,,,,,,,,,,,,,,,,,16.559954342999845,None,16.559954342999845,None,16.559954342999845,None,None,,None,None,None,None,None,None,None,None,None,None,None,None,None,None,None,None,None,None,None,None,None,None,,,,,,,,,,,,,,,,,,,,,,,,,001,2022_aug_16_1115,new_task_ARSQ,2021.2.3,60.0125135692206,
,,2,nBack2Cond.xlsx,2,0,0.2,None,2,62,,,,,,,,,0,1,1,1,0,1,1,1,,,,,,,,,,,,,,,,,,,,,,,,,,,,,,,,,,,,,,,,,,,,,,,,,,,,,,,,,,,,,,None,,None,None,None,None,None,None,None,None,None,None,None,None,None,None,None,None,None,None,None,None,None,None,,,,,,,,,,,,,,,,,,,,,,,,,001,2022_aug_16_1115,new_task_ARSQ,2021.2.3,60.0125135692206,
,,2,nBack2Cond.xlsx,6,0.2,0,None,2,63,,,,,,,,,0,1,1,1,0,2,2,2,,,,,,,,,,,,,,,,,,,,,,,,,,,,,,,,,,,,,,,,,,,,,,,,,,,,,,,,,,,,,,None,,None,None,None,None,None,None,None,None,None,None,None,None,None,None,None,None,None,None,None,None,None,None,,,,,,,,,,,,,,,,,,,,,,,,,001,2022_aug_16_1115,new_task_ARSQ,2021.2.3,60.0125135692206,
,,2,nBack2Cond.xlsx,9,0.2,-0.2,None,2,64,,,,,,,,,0,1,1,1,0,3,3,3,,,,,,,,,,,,,,,,,,,,,,,,,,,,,,,,,,,,,,,,,,,,,,,,,,,,,,,,,,,,,,None,,None,None,None,None,None,None,None,None,None,None,None,None,None,None,None,None,None,None,None,None,None,None,,,,,,,,,,,,,,,,,,,,,,,,,001,2022_aug_16_1115,new_task_ARSQ,2021.2.3,60.0125135692206,
,,2,nBack2Cond.xlsx,3,0.2,0.2,None,2,65,,,,,,,,,0,1,1,1,0,4,4,4,,,,,,,,,,,,,,,,,,,,,,,,,,,,,,,,,,,,,,,,,,,,,,,,,,,,,,,,,,,,,,None,,None,None,None,None,None,None,None,None,None,None,None,None,None,None,None,None,None,None,None,None,None,None,,,,,,,,,,,,,,,,,,,,,,,,,001,2022_aug_16_1115,new_task_ARSQ,2021.2.3,60.0125135692206,
,,2,nBack2Cond.xlsx,9,0.2,-0.2,space,2,66,,,,,,,,,0,1,1,1,0,5,5,5,,,,,,,,,,,,,,,,,,,,,,,,,,,,,,,,,,,,,,,,,,,,,,,,,,,,,,,,,,,,,,None,,None,None,None,None,None,None,None,None,None,None,None,None,None,None,None,None,None,None,None,None,None,None,,,,,,,,,,,,,,,,,,,,,,,,,001,2022_aug_16_1115,new_task_ARSQ,2021.2.3,60.0125135692206,
,,2,nBack2Cond.xlsx,7,-0.2,-0.2,None,2,67,,,,,,,,,0,1,1,1,0,6,6,6,,,,,,,,,,,,,,,,,,,,,,,,,,,,,,,,,,,,,,,,,,,,,,,,,,,,,,,,,,,,,,None,,None,None,None,None,None,None,None,None,None,None,None,None,None,None,None,None,None,None,None,None,None,None,,,,,,,,,,,,,,,,,,,,,,,,,001,2022_aug_16_1115,new_task_ARSQ,2021.2.3,60.0125135692206,
,,2,nBack2Cond.xlsx,1,-0.2,0.2,None,2,68,,,,,,,,,0,1,1,1,0,7,7,7,,,,,,,,,,,,,,,,,,,,,,,,,,,,,,,,,,,,,,,,,,,,,,,,,,,,,,,,,,,,,,None,,None,None,None,None,None,None,None,None,None,None,None,None,None,None,None,None,None,None,None,None,None,None,,,,,,,,,,,,,,,,,,,,,,,,,001,2022_aug_16_1115,new_task_ARSQ,2021.2.3,60.0125135692206,
,,2,nBack2Cond.xlsx,5,0,0,None,2,69,,,,,,,,,0,1,1,1,0,8,8,8,,,,,,,,,,,,,,,,,,,,,,,,,,,,,,,,,,,,,,,,,,,,,,,,,,,,,,,,,,,,,,None,,None,None,None,None,None,None,None,None,None,None,None,None,None,None,None,None,None,None,None,None,None,None,,,,,,,,,,,,,,,,,,,,,,,,,001,2022_aug_16_1115,new_task_ARSQ,2021.2.3,60.0125135692206,
,,2,nBack2Cond.xlsx,7,-0.2,-0.2,None,2,70,,,,,,,,,0,1,1,1,0,9,9,9,,,,,,,,,,,,,,,,,,,,,,,,,,,,,,,,,,,,,,,,,,,,,,,,,,,,,,,,,,,,,,None,,None,None,None,None,None,None,None,None,None,None,None,None,None,None,None,None,None,None,None,None,None,None,,,,,,,,,,,,,,,,,,,,,,,,,001,2022_aug_16_1115,new_task_ARSQ,2021.2.3,60.0125135692206,
,,2,nBack2Cond.xlsx,5,0,0,space,2,71,,,,,,,,,0,1,1,1,0,10,10,10,,,,,,,,,,,,,,,,,,,,,,,,,,,,,,,,,,,,,,,,,,,,,,,,,,,,,,,,,,,,,,None,,None,None,None,None,None,None,None,None,None,None,None,None,None,None,None,None,None,None,None,None,None,None,,,,,,,,,,,,,,,,,,,,,,,,,001,2022_aug_16_1115,new_task_ARSQ,2021.2.3,60.0125135692206,
,,2,nBack2Cond.xlsx,6,0.2,0,None,2,72,,,,,,,,,0,1,1,1,0,11,11,11,,,,,,,,,,,,,,,,,,,,,,,,,,,,,,,,,,,,,,,,,,,,,,,,,,,,,,,,,,,,,,None,,None,None,None,None,None,None,None,None,None,None,None,None,None,None,None,None,None,None,None,None,None,None,,,,,,,,,,,,,,,,,,,,,,,,,001,2022_aug_16_1115,new_task_ARSQ,2021.2.3,60.0125135692206,
,,2,nBack2Cond.xlsx,3,0.2,0.2,None,2,73,,,,,,,,,0,1,1,1,0,12,12,12,,,,,,,,,,,,,,,,,,,,,,,,,,,,,,,,,,,,,,,,,,,,,,,,,,,,,,,,,,,,,,None,,None,None,None,None,None,None,None,None,None,None,None,None,None,None,None,None,None,None,None,None,None,None,,,,,,,,,,,,,,,,,,,,,,,,,001,2022_aug_16_1115,new_task_ARSQ,2021.2.3,60.0125135692206,
,,2,nBack2Cond.xlsx,6,0.2,0,space,2,74,,,,,,,,,0,1,1,1,0,13,13,13,,,,,,,,,,,,,,,,,,,,,,,,,,,,,,,,,,,,,,,,,,,,,,,,,,,,,,,,,,,,,,None,,None,None,None,None,None,None,None,None,None,None,None,None,None,None,None,None,None,None,None,None,None,None,,,,,,,,,,,,,,,,,,,,,,,,,001,2022_aug_16_1115,new_task_ARSQ,2021.2.3,60.0125135692206,
,,2,nBack2Cond.xlsx,8,0,-0.2,None,2,75,,,,,,,,,0,1,1,1,0,14,14,14,,,,,,,,,,,,,,,,,,,,,,,,,,,,,,,,,,,,,,,,,,,,,,,,,,,,,,,,,,,,,,None,,None,None,None,None,None,None,None,None,None,None,None,None,None,None,None,None,None,None,None,None,None,None,,,,,,,,,,,,,,,,,,,,,,,,,001,2022_aug_16_1115,new_task_ARSQ,2021.2.3,60.0125135692206,
,,2,nBack2Cond.xlsx,9,0.2,-0.2,None,2,76,,,,,,,,,0,1,1,1,0,15,15,15,,,,,,,,,,,,,,,,,,,,,,,,,,,,,,,,,,,,,,,,,,,,,,,,,,,,,,,,,,,,,,None,,None,None,None,None,None,None,None,None,None,None,None,None,None,None,None,None,None,None,None,None,None,None,,,,,,,,,,,,,,,,,,,,,,,,,001,2022_aug_16_1115,new_task_ARSQ,2021.2.3,60.0125135692206,
,,2,nBack2Cond.xlsx,9,0.2,-0.2,None,2,77,,,,,,,,,0,1,1,1,0,16,16,16,,,,,,,,,,,,,,,,,,,,,,,,,,,,,,,,,,,,,,,,,,,,,,,,,,,,,,,,,,,,,,None,,None,None,None,None,None,None,None,None,None,None,None,None,None,None,None,None,None,None,None,None,None,None,,,,,,,,,,,,,,,,,,,,,,,,,001,2022_aug_16_1115,new_task_ARSQ,2021.2.3,60.0125135692206,
,,2,nBack2Cond.xlsx,1,-0.2,0.2,None,2,78,,,,,,,,,0,1,1,1,0,17,17,17,,,,,,,,,,,,,,,,,,,,,,,,,,,,,,,,,,,,,,,,,,,,,,,,,,,,,,,,,,,,,,None,,None,None,None,None,None,None,None,None,None,None,None,None,None,None,None,None,None,None,None,None,None,None,,,,,,,,,,,,,,,,,,,,,,,,,001,2022_aug_16_1115,new_task_ARSQ,2021.2.3,60.0125135692206,
,,2,nBack2Cond.xlsx,3,0.2,0.2,None,2,79,,,,,,,,,0,1,1,1,0,18,18,18,,,,,,,,,,,,,,,,,,,,,,,,,,,,,,,,,,,,,,,,,,,,,,,,,,,,,,,,,,,,,,None,,None,None,None,None,None,None,None,None,None,None,None,None,None,None,None,None,None,None,None,None,None,None,,,,,,,,,,,,,,,,,,,,,,,,,001,2022_aug_16_1115,new_task_ARSQ,2021.2.3,60.0125135692206,
,,2,nBack2Cond.xlsx,5,0,0,None,2,80,,,,,,,,,0,1,1,1,0,19,19,19,,,,,,,,,,,,,,,,,,,,,,,,,,,,,,,,,,,,,,,,,,,,,,,,,,,,,,,,,,,,,,None,,None,None,None,None,None,None,None,None,None,None,None,None,None,None,None,None,None,None,None,None,None,None,,,,,,,,,,,,,,,,,,,,,,,,,001,2022_aug_16_1115,new_task_ARSQ,2021.2.3,60.0125135692206,
,,2,nBack2Cond.xlsx,3,0.2,0.2,space,2,81,,,,,,,,,0,1,1,1,0,20,20,20,,,,,,,,,,,,,,,,,,,,,,,,,,,,,,,,,,,,,,,,,,,,,,,,,,,,,,,,,,,,,,None,,None,None,None,None,None,None,None,None,None,None,None,None,None,None,None,None,None,None,None,None,None,None,,,,,,,,,,,,,,,,,,,,,,,,,001,2022_aug_16_1115,new_task_ARSQ,2021.2.3,60.0125135692206,
,,2,nBack2Cond.xlsx,4,-0.2,0,None,2,82,,,,,,,,,0,1,1,1,0,21,21,21,,,,,,,,,,,,,,,,,,,,,,,,,,,,,,,,,,,,,,,,,,,,,,,,,,,,,,,,,,,,,,None,,None,None,None,None,None,None,None,None,None,None,None,None,None,None,None,None,None,None,None,None,None,None,,,,,,,,,,,,,,,,,,,,,,,,,001,2022_aug_16_1115,new_task_ARSQ,2021.2.3,60.0125135692206,
,,2,nBack2Cond.xlsx,7,-0.2,-0.2,None,2,83,,,,,,,,,0,1,1,1,0,22,22,22,,,,,,,,,,,,,,,,,,,,,,,,,,,,,,,,,,,,,,,,,,,,,,,,,,,,,,,,,,,,,,None,,None,None,None,None,None,None,None,None,None,None,None,None,None,None,None,None,None,None,None,None,None,None,,,,,,,,,,,,,,,,,,,,,,,,,001,2022_aug_16_1115,new_task_ARSQ,2021.2.3,60.0125135692206,
,,2,nBack2Cond.xlsx,4,-0.2,0,space,2,84,,,,,,,,,0,1,1,1,0,23,23,23,,,,,,,,,,,,,,,,,,,,,,,,,,,,,,,,,,,,,,,,,,,,,,,,,,,,,,,,,,,,,,None,,None,None,None,None,None,None,None,None,None,None,None,None,None,None,None,None,None,None,None,None,None,None,,,,,,,,,,,,,,,,,,,,,,,,,001,2022_aug_16_1115,new_task_ARSQ,2021.2.3,60.0125135692206,
,,2,nBack2Cond.xlsx,4,-0.2,0,None,2,85,,,,,,,,,0,1,1,1,0,24,24,24,,,,,,,,,,,,,,,,,,,,,,,,,,,,,,,,,,,,,,,,,,,,,,,,,,,,,,,,,,,,,,None,,None,None,None,None,None,None,None,None,None,None,None,None,None,None,None,None,None,None,None,None,None,None,,,,,,,,,,,,,,,,,,,,,,,,,001,2022_aug_16_1115,new_task_ARSQ,2021.2.3,60.0125135692206,
,,2,nBack2Cond.xlsx,5,0,0,None,2,86,,,,,,,,,0,1,1,1,0,25,25,25,,,,,,,,,,,,,,,,,,,,,,,,,,,,,,,,,,,,,,,,,,,,,,,,,,,,,,,,,,,,,,None,,None,None,None,None,None,None,None,None,None,None,None,None,None,None,None,None,None,None,None,None,None,None,,,,,,,,,,,,,,,,,,,,,,,,,001,2022_aug_16_1115,new_task_ARSQ,2021.2.3,60.0125135692206,
,,2,nBack2Cond.xlsx,2,0,0.2,None,2,87,,,,,,,,,0,1,1,1,0,26,26,26,,,,,,,,,,,,,,,,,,,,,,,,,,,,,,,,,,,,,,,,,,,,,,,,,,,,,,,,,,,,,,None,,None,None,None,None,None,None,None,None,None,None,None,None,None,None,None,None,None,None,None,None,None,None,,,,,,,,,,,,,,,,,,,,,,,,,001,2022_aug_16_1115,new_task_ARSQ,2021.2.3,60.0125135692206,
,,2,nBack2Cond.xlsx,6,0.2,0,None,2,88,,,,,,,,,0,1,1,1,0,27,27,27,,,,,,,,,,,,,,,,,,,,,,,,,,,,,,,,,,,,,,,,,,,,,,,,,,,,,,,,,,,,,,None,,None,None,None,None,None,None,None,None,None,None,None,None,None,None,None,None,None,None,None,None,None,None,,,,,,,,,,,,,,,,,,,,,,,,,001,2022_aug_16_1115,new_task_ARSQ,2021.2.3,60.0125135692206,
,,2,nBack2Cond.xlsx,7,-0.2,-0.2,None,2,89,,,,,,,,,0,1,1,1,0,28,28,28,,,,,,,,,,,,,,,,,,,,,,,,,,,,,,,,,,,,,,,,,,,,,,,,,,,,,,,,,,,,,,None,,None,None,None,None,None,None,None,None,None,None,None,None,None,None,None,None,None,None,None,None,None,None,,,,,,,,,,,,,,,,,,,,,,,,,001,2022_aug_16_1115,new_task_ARSQ,2021.2.3,60.0125135692206,
,,2,nBack2Cond.xlsx,6,0.2,0,space,2,90,,,,,,,,,0,1,1,1,0,29,29,29,,,,,,,,,,,,,,,,,,,,,,,,,,,,,,,,,,,,,,,,,,,,,,,,,,,,,,,,,,,,,,None,,None,None,None,None,None,None,None,None,None,None,None,None,None,None,None,None,None,None,None,None,None,None,,,,,,,,,,,,,,,,,,,,,,,,,001,2022_aug_16_1115,new_task_ARSQ,2021.2.3,60.0125135692206,
,,2,nBack2Cond.xlsx,8,0,-0.2,None,2,91,,,,,,,,,0,1,1,1,0,30,30,30,,,,,,,,,,,,,,,,,,,,,,,,,,,,,,,,,,,,,,,,,,,,,,,,,,,,,,,,,,,,,,None,,None,None,None,None,None,None,None,None,None,None,None,None,None,None,None,None,None,None,None,None,None,None,,,,,,,,,,,,,,,,,,,,,,,,,001,2022_aug_16_1115,new_task_ARSQ,2021.2.3,60.0125135692206,
,,2,nBack2Cond.xlsx,2,0,0.2,None,2,92,,,,,,,,,0,1,1,1,0,31,31,31,,,,,,,,,,,,,,,,,,,,,,,,,,,,,,,,,,,,,,,,,,,,,,,,,,,,,,,,,,,,,,None,,None,None,None,None,None,None,None,None,None,None,None,None,None,None,None,None,None,None,None,None,None,None,,,,,,,,,,,,,,,,,,,,,,,,,001,2022_aug_16_1115,new_task_ARSQ,2021.2.3,60.0125135692206,
,,2,nBack2Cond.xlsx,8,0,-0.2,space,2,93,,,,,,,,,0,1,1,1,0,32,32,32,,,,,,,,,,,,,,,,,,,,,,,,,,,,,,,,,,,,,,,,,,,,,,,,,,,,,,,,,,,,,,None,,None,None,None,None,None,None,None,None,None,None,None,None,None,None,None,None,None,None,None,None,None,None,,,,,,,,,,,,,,,,,,,,,,,,,001,2022_aug_16_1115,new_task_ARSQ,2021.2.3,60.0125135692206,
,,2,nBack2Cond.xlsx,9,0.2,-0.2,None,2,94,,,,,,,,,0,1,1,1,0,33,33,33,,,,,,,,,,,,,,,,,,,,,,,,,,,,,,,,,,,,,,,,,,,,,,,,,,,,,,,,,,,,,,None,,None,None,None,None,None,None,None,None,None,None,None,None,None,None,None,None,None,None,None,None,None,None,,,,,,,,,,,,,,,,,,,,,,,,,001,2022_aug_16_1115,new_task_ARSQ,2021.2.3,60.0125135692206,
,,2,nBack2Cond.xlsx,6,0.2,0,None,2,95,,,,,,,,,0,1,1,1,0,34,34,34,,,,,,,,,,,,,,,,,,,,,,,,,,,,,,,,,,,,,,,,,,,,,,,,,,,,,,,,,,,,,,None,,None,None,None,None,None,None,None,None,None,None,None,None,None,None,None,None,None,None,None,None,None,None,,,,,,,,,,,,,,,,,,,,,,,,,001,2022_aug_16_1115,new_task_ARSQ,2021.2.3,60.0125135692206,
,,2,nBack2Cond.xlsx,9,0.2,-0.2,space,2,96,,,,,,,,,0,1,1,1,0,35,35,35,,,,,,,,,,,,,,,,,,,,,,,,,,,,,,,,,,,,,,,,,,,,,,,,,,,,,,,,,,,,,,None,,None,None,None,None,None,None,None,None,None,None,None,None,None,None,None,None,None,None,None,None,None,None,,,,,,,,,,,,,,,,,,,,,,,,,001,2022_aug_16_1115,new_task_ARSQ,2021.2.3,60.0125135692206,
,,2,nBack2Cond.xlsx,4,-0.2,0,None,2,97,,,,,,,,,0,1,1,1,0,36,36,36,,,,,,,,,,,,,,,,,,,,,,,,,,,,,,,,,,,,,,,,,,,,,,,,,,,,,,,,,,,,,,None,,None,None,None,None,None,None,None,None,None,None,None,None,None,None,None,None,None,None,None,None,None,None,,,,,,,,,,,,,,,,,,,,,,,,,001,2022_aug_16_1115,new_task_ARSQ,2021.2.3,60.0125135692206,
,,2,nBack2Cond.xlsx,3,0.2,0.2,None,2,98,,,,,,,,,0,1,1,1,0,37,37,37,,,,,,,,,,,,,,,,,,,,,,,,,,,,,,,,,,,,,,,,,,,,,,,,,,,,,,,,,,,,,,None,,None,None,None,None,None,None,None,None,None,None,None,None,None,None,None,None,None,None,None,None,None,None,,,,,,,,,,,,,,,,,,,,,,,,,001,2022_aug_16_1115,new_task_ARSQ,2021.2.3,60.0125135692206,
,,2,nBack2Cond.xlsx,8,0,-0.2,None,2,99,,,,,,,,,0,1,1,1,0,38,38,38,,,,,,,,,,,,,,,,,,,,,,,,,,,,,,,,,,,,,,,,,,,,,,,,,,,,,,,,,,,,,,None,,None,None,None,None,None,None,None,None,None,None,None,None,None,None,None,None,None,None,None,None,None,None,,,,,,,,,,,,,,,,,,,,,,,,,001,2022_aug_16_1115,new_task_ARSQ,2021.2.3,60.0125135692206,
,,2,nBack2Cond.xlsx,3,0.2,0.2,space,2,100,,,,,,,,,0,1,1,1,0,39,39,39,,,,,,,,,,,,,,,,,,,,,,,,,,,,,,,,,,,,,,,,,,,,,,,,,,,,,,,,,,,,,,None,,None,None,None,None,None,None,None,None,None,None,None,None,None,None,None,None,None,None,None,None,None,None,,,,,,,,,,,,,,,,,,,,,,,,,001,2022_aug_16_1115,new_task_ARSQ,2021.2.3,60.0125135692206,
,,2,nBack2Cond.xlsx,1,-0.2,0.2,None,2,101,,,,,,,,,0,1,1,1,0,40,40,40,,,,,,,,,,,,,,,,,,,,,,,,,,,,,,,,,,,,,,,,,,,,,,,,,,,,,,,,,,,,,,None,,None,None,None,None,None,None,None,None,None,None,None,None,None,None,None,None,None,None,None,None,None,None,,,,,,,,,,,,,,,,,,,,,,,,,001,2022_aug_16_1115,new_task_ARSQ,2021.2.3,60.0125135692206,
,,2,nBack2Cond.xlsx,4,-0.2,0,None,2,102,,,,,,,,,0,1,1,1,0,41,41,41,,,,,,,,,,,,,,,,,,,,,,,,,,,,,,,,,,,,,,,,,,,,,,,,,,,,,,,,,,,,,,None,,None,None,None,None,None,None,None,None,None,None,None,None,None,None,None,None,None,None,None,None,None,None,,,,,,,,,,,,,,,,,,,,,,,,,001,2022_aug_16_1115,new_task_ARSQ,2021.2.3,60.0125135692206,
,,2,nBack2Cond.xlsx,2,0,0.2,None,2,103,,,,,,,,,0,1,1,1,0,42,42,42,,,,,,,,,,,,,,,,,,,,,,,,,,,,,,,,,,,,,,,,,,,,,,,,,,,,,,,,,,,,,,None,,None,None,None,None,None,None,None,None,None,None,None,None,None,None,None,None,None,None,None,None,None,None,,,,,,,,,,,,,,,,,,,,,,,,,001,2022_aug_16_1115,new_task_ARSQ,2021.2.3,60.0125135692206,
,,2,nBack2Cond.xlsx,4,-0.2,0,space,2,104,,,,,,,,,0,1,1,1,0,43,43,43,,,,,,,,,,,,,,,,,,,,,,,,,,,,,,,,,,,,,,,,,,,,,,,,,,,,,,,,,,,,,,None,,None,None,None,None,None,None,None,None,None,None,None,None,None,None,None,None,None,None,None,None,None,None,,,,,,,,,,,,,,,,,,,,,,,,,001,2022_aug_16_1115,new_task_ARSQ,2021.2.3,60.0125135692206,
,,2,nBack2Cond.xlsx,8,0,-0.2,None,2,105,,,,,,,,,0,1,1,1,0,44,44,44,,,,,,,,,,,,,,,,,,,,,,,,,,,,,,,,,,,,,,,,,,,,,,,,,,,,,,,,,,,,,,None,,None,None,None,None,None,None,None,None,None,None,None,None,None,None,None,None,None,None,None,None,None,None,,,,,,,,,,,,,,,,,,,,,,,,,001,2022_aug_16_1115,new_task_ARSQ,2021.2.3,60.0125135692206,
,,2,nBack2Cond.xlsx,5,0,0,None,2,106,,,,,,,,,0,1,1,1,0,45,45,45,,,,,,,,,,,,,,,,,,,,,,,,,,,,,,,,,,,,,,,,,,,,,,,,,,,,,,,,,,,,,,None,,None,None,None,None,None,None,None,None,None,None,None,None,None,None,None,None,None,None,None,None,None,None,,,,,,,,,,,,,,,,,,,,,,,,,001,2022_aug_16_1115,new_task_ARSQ,2021.2.3,60.0125135692206,
,,2,nBack2Cond.xlsx,1,-0.2,0.2,None,2,107,,,,,,,,,0,1,1,1,0,46,46,46,,,,,,,,,,,,,,,,,,,,,,,,,,,,,,,,,,,,,,,,,,,,,,,,,,,,,,,,,,,,,,None,,None,None,None,None,None,None,None,None,None,None,None,None,None,None,None,None,None,None,None,None,None,None,,,,,,,,,,,,,,,,,,,,,,,,,001,2022_aug_16_1115,new_task_ARSQ,2021.2.3,60.0125135692206,
,,2,nBack2Cond.xlsx,5,0,0,space,2,108,,,,,,,,,0,1,1,1,0,47,47,47,,,,,,,,,,,,,,,,,,,,,,,,,,,,,,,,,,,,,,,,,,,,,,,,,,,,,,,,,,,,,,None,,None,None,None,None,None,None,None,None,None,None,None,None,None,None,None,None,None,None,None,None,None,None,,,,,,,,,,,,,,,,,,,,,,,,,001,2022_aug_16_1115,new_task_ARSQ,2021.2.3,60.0125135692206,
,,2,nBack2Cond.xlsx,3,0.2,0.2,None,2,109,,,,,,,,,0,1,1,1,0,48,48,48,,,,,,,,,,,,,,,,,,,,,,,,,,,,,,,,,,,,,,,,,,,,,,,,,,,,,,,,,,,,,,None,,None,None,None,None,None,None,None,None,None,None,None,None,None,None,None,None,None,None,None,None,None,None,,,,,,,,,,,,,,,,,,,,,,,,,001,2022_aug_16_1115,new_task_ARSQ,2021.2.3,60.0125135692206,
,,2,nBack2Cond.xlsx,6,0.2,0,None,2,110,,,,,,,,,0,1,1,1,0,49,49,49,,,,,,,,,,,,,,,,,,,,,,,,,,,,,,,,,,,,,,,,,,,,,,,,,,,,,,,,,,,,,,None,,None,None,None,None,None,None,None,None,None,None,None,None,None,None,None,None,None,None,None,None,None,None,,,,,,,,,,,,,,,,,,,,,,,,,001,2022_aug_16_1115,new_task_ARSQ,2021.2.3,60.0125135692206,
,,2,nBack2Cond.xlsx,1,-0.2,0.2,None,2,111,,,,,,,,,0,1,1,1,0,50,50,50,,,,,,,,,,,,,,,,,,,,,,,,,,,,,,,,,,,,,,,,,,,,,,,,,,,,,,,,,,,,,,None,,None,None,None,None,None,None,None,None,None,None,None,None,None,None,None,None,None,None,None,None,None,None,,,,,,,,,,,,,,,,,,,,,,,,,001,2022_aug_16_1115,new_task_ARSQ,2021.2.3,60.0125135692206,
,,2,nBack2Cond.xlsx,3,0.2,0.2,None,2,112,,,,,,,,,0,1,1,1,0,51,51,51,,,,,,,,,,,,,,,,,,,,,,,,,,,,,,,,,,,,,,,,,,,,,,,,,,,,,,,,,,,,,,None,,None,None,None,None,None,None,None,None,None,None,None,None,None,None,None,None,None,None,None,None,None,None,,,,,,,,,,,,,,,,,,,,,,,,,001,2022_aug_16_1115,new_task_ARSQ,2021.2.3,60.0125135692206,
,,2,nBack2Cond.xlsx,1,-0.2,0.2,space,2,113,,,,,,,,,0,1,1,1,0,52,52,52,,,,,,,,,,,,,,,,,,,,,,,,,,,,,,,,,,,,,,,,,,,,,,,,,,,,,,,,,,,,,,None,,None,None,None,None,None,None,None,None,None,None,None,None,None,None,None,None,None,None,None,None,None,None,,,,,,,,,,,,,,,,,,,,,,,,,001,2022_aug_16_1115,new_task_ARSQ,2021.2.3,60.0125135692206,
,,2,nBack2Cond.xlsx,2,0,0.2,None,2,114,,,,,,,,,0,1,1,1,0,53,53,53,,,,,,,,,,,,,,,,,,,,,,,,,,,,,,,,,,,,,,,,,,,,,,,,,,,,,,,,,,,,,,None,,None,None,None,None,None,None,None,None,None,None,None,None,None,None,None,None,None,None,None,None,None,None,,,,,,,,,,,,,,,,,,,,,,,,,001,2022_aug_16_1115,new_task_ARSQ,2021.2.3,60.0125135692206,
,,2,nBack2Cond.xlsx,1,-0.2,0.2,space,2,115,,,,,,,,,0,1,1,1,0,54,54,54,,,,,,,,,,,,,,,,,,,,,,,,,,,,,,,,,,,,,,,,,,,,,,,,,,,,,,,,,,,,,,None,,None,None,None,None,None,None,None,None,None,None,None,None,None,None,None,None,None,None,None,None,None,None,,,,,,,,,,,,,,,,,,,,,,,,,001,2022_aug_16_1115,new_task_ARSQ,2021.2.3,60.0125135692206,
,,2,nBack2Cond.xlsx,1,-0.2,0.2,None,2,116,,,,,,,,,0,1,1,1,0,55,55,55,,,,,,,,,,,,,,,,,,,,,,,,,,,,,,,,,,,,,,,,,,,,,,,,,,,,,,,,,,,,,,None,,None,None,None,None,None,None,None,None,None,None,None,None,None,None,None,None,None,None,None,None,None,None,,,,,,,,,,,,,,,,,,,,,,,,,001,2022_aug_16_1115,new_task_ARSQ,2021.2.3,60.0125135692206,
,,2,nBack2Cond.xlsx,7,-0.2,-0.2,None,2,117,,,,,,,,,0,1,1,1,0,56,56,56,,,,,,,,,,,,,,,,,,,,,,,,,,,,,,,,,,,,,,,,,,,,,,,,,,,,,,,,,,,,,,None,,None,None,None,None,None,None,None,None,None,None,None,None,None,None,None,None,None,None,None,None,None,None,,,,,,,,,,,,,,,,,,,,,,,,,001,2022_aug_16_1115,new_task_ARSQ,2021.2.3,60.0125135692206,
,,2,nBack2Cond.xlsx,2,0,0.2,None,2,118,,,,,,,,,0,1,1,1,0,57,57,57,,,,,,,,,,,,,,,,,,,,,,,,,,,,,,,,,,,,,,,,,,,,,,,,,,,,,,,,,,,,,,None,,None,None,None,None,None,None,None,None,None,None,None,None,None,None,None,None,None,None,None,None,None,None,,,,,,,,,,,,,,,,,,,,,,,,,001,2022_aug_16_1115,new_task_ARSQ,2021.2.3,60.0125135692206,
,,2,nBack2Cond.xlsx,7,-0.2,-0.2,space,2,119,,,,,,,,,0,1,1,1,0,58,58,58,,,,,,,,,,,,,,,,,,,,,,,,,,,,,,,,,,,,,,,,,,,,,,,,,,,,,,,,,,,,,,None,,None,None,None,None,None,None,None,None,None,None,None,None,None,None,None,None,None,None,None,None,None,None,,,,,,,,,,,,,,,,,,,,,,,,,001,2022_aug_16_1115,new_task_ARSQ,2021.2.3,60.0125135692206,
,,2,nBack2Cond.xlsx,6,0.2,0,None,2,120,,,,,,,,,0,1,1,1,0,59,59,59,,,,,,,,,,,,,,,,,,,,,,,,,,,,,,,,,,,,,,,,,,,,,,,,,,,,,,,,,,,,,,None,,None,None,None,None,None,None,None,None,None,None,None,None,None,None,None,None,None,None,None,None,None,None,,,,,,,,,,,,,,,,,,,,,,,,,001,2022_aug_16_1115,new_task_ARSQ,2021.2.3,60.0125135692206,
,,2,nBack2Cond.xlsx,6,0.2,0,None,1,1,,,,,,,,,0,1,1,1,0,0,0,0,,,,,,,,,,,,,,,,,,,,,,,,,,,,,,,,,,,,,,,,,,,,,,,,,,,,,,,,,,,,,,,,,,,,,,,,,,,,,,,,,,,,,,,,,,,,,,,,,,,,,,,,,,,,,,001,2022_aug_16_1115,new_task_ARSQ,2021.2.3,60.0125135692206,
,,3,nBack3Cond.xlsx,4,-0.2,0,None,3,121,,,,,,,,,0,2,2,2,0,0,0,0,,,,,,,,,,,,,,,,,,,,,,,,,,,,,,,,,,,,,,,,,,,,,,,,,,,,,,,,18.554078736999827,None,18.554078736999827,None,18.554078736999827,None,None,,None,None,None,None,None,None,None,None,None,None,None,None,None,None,None,None,None,None,None,None,None,None,,,,,,,,,,,,,,,,,,,,,,,,,001,2022_aug_16_1115,new_task_ARSQ,2021.2.3,60.0125135692206,
,,3,nBack3Cond.xlsx,2,0,0.2,None,3,122,,,,,,,,,0,2,2,2,0,1,1,1,,,,,,,,,,,,,,,,,,,,,,,,,,,,,,,,,,,,,,,,,,,,,,,,,,,,,,,,,,,,,,None,,None,None,None,None,None,None,None,None,None,None,None,None,None,None,None,None,None,None,None,None,None,None,,,,,,,,,,,,,,,,,,,,,,,,,001,2022_aug_16_1115,new_task_ARSQ,2021.2.3,60.0125135692206,
,,3,nBack3Cond.xlsx,9,0.2,-0.2,None,3,123,,,,,,,,,0,2,2,2,0,2,2,2,,,,,,,,,,,,,,,,,,,,,,,,,,,,,,,,,,,,,,,,,,,,,,,,,,,,,,,,,,,,,,None,,None,None,None,None,None,None,None,None,None,None,None,None,None,None,None,None,None,None,None,None,None,None,,,,,,,,,,,,,,,,,,,,,,,,,001,2022_aug_16_1115,new_task_ARSQ,2021.2.3,60.0125135692206,
,,3,nBack3Cond.xlsx,4,-0.2,0,space,3,124,,,,,,,,,0,2,2,2,0,3,3,3,,,,,,,,,,,,,,,,,,,,,,,,,,,,,,,,,,,,,,,,,,,,,,,,,,,,,,,,,,,,,,None,,None,None,None,None,None,None,None,None,None,None,None,None,None,None,None,None,None,None,None,None,None,None,,,,,,,,,,,,,,,,,,,,,,,,,001,2022_aug_16_1115,new_task_ARSQ,2021.2.3,60.0125135692206,
,,3,nBack3Cond.xlsx,3,0.2,0.2,None,3,125,,,,,,,,,0,2,2,2,0,4,4,4,,,,,,,,,,,,,,,,,,,,,,,,,,,,,,,,,,,,,,,,,,,,,,,,,,,,,,,,,,,,,,None,,None,None,None,None,None,None,None,None,None,None,None,None,None,None,None,None,None,None,None,None,None,None,,,,,,,,,,,,,,,,,,,,,,,,,001,2022_aug_16_1115,new_task_ARSQ,2021.2.3,60.0125135692206,
,,3,nBack3Cond.xlsx,9,0.2,-0.2,space,3,126,,,,,,,,,0,2,2,2,0,5,5,5,,,,,,,,,,,,,,,,,,,,,,,,,,,,,,,,,,,,,,,,,,,,,,,,,,,,,,,,,,,,,,None,,None,None,None,None,None,None,None,None,None,None,None,None,None,None,None,None,None,None,None,None,None,None,,,,,,,,,,,,,,,,,,,,,,,,,001,2022_aug_16_1115,new_task_ARSQ,2021.2.3,60.0125135692206,
,,3,nBack3Cond.xlsx,1,-0.2,0.2,None,3,127,,,,,,,,,0,2,2,2,0,6,6,6,,,,,,,,,,,,,,,,,,,,,,,,,,,,,,,,,,,,,,,,,,,,,,,,,,,,,,,,,,,,,,None,,None,None,None,None,None,None,None,None,None,None,None,None,None,None,None,None,None,None,None,None,None,None,,,,,,,,,,,,,,,,,,,,,,,,,001,2022_aug_16_1115,new_task_ARSQ,2021.2.3,60.0125135692206,
,,3,nBack3Cond.xlsx,1,-0.2,0.2,None,3,128,,,,,,,,,0,2,2,2,0,7,7,7,,,,,,,,,,,,,,,,,,,,,,,,,,,,,,,,,,,,,,,,,,,,,,,,,,,,,,,,,,,,,,None,,None,None,None,None,None,None,None,None,None,None,None,None,None,None,None,None,None,None,None,None,None,None,,,,,,,,,,,,,,,,,,,,,,,,,001,2022_aug_16_1115,new_task_ARSQ,2021.2.3,60.0125135692206,
,,3,nBack3Cond.xlsx,6,0.2,0,None,3,129,,,,,,,,,0,2,2,2,0,8,8,8,,,,,,,,,,,,,,,,,,,,,,,,,,,,,,,,,,,,,,,,,,,,,,,,,,,,,,,,,,,,,,None,,None,None,None,None,None,None,None,None,None,None,None,None,None,None,None,None,None,None,None,None,None,None,,,,,,,,,,,,,,,,,,,,,,,,,001,2022_aug_16_1115,new_task_ARSQ,2021.2.3,60.0125135692206,
,,3,nBack3Cond.xlsx,1,-0.2,0.2,space,3,130,,,,,,,,,0,2,2,2,0,9,9,9,,,,,,,,,,,,,,,,,,,,,,,,,,,,,,,,,,,,,,,,,,,,,,,,,,,,,,,,,,,,,,None,,None,None,None,None,None,None,None,None,None,None,None,None,None,None,None,None,None,None,None,None,None,None,,,,,,,,,,,,,,,,,,,,,,,,,001,2022_aug_16_1115,new_task_ARSQ,2021.2.3,60.0125135692206,
,,3,nBack3Cond.xlsx,5,0,0,None,3,131,,,,,,,,,0,2,2,2,0,10,10,10,,,,,,,,,,,,,,,,,,,,,,,,,,,,,,,,,,,,,,,,,,,,,,,,,,,,,,,,,,,,,,None,,None,None,None,None,None,None,None,None,None,None,None,None,None,None,None,None,None,None,None,None,None,None,,,,,,,,,,,,,,,,,,,,,,,,,001,2022_aug_16_1115,new_task_ARSQ,2021.2.3,60.0125135692206,
,,3,nBack3Cond.xlsx,6,0.2,0,space,3,132,,,,,,,,,0,2,2,2,0,11,11,11,,,,,,,,,,,,,,,,,,,,,,,,,,,,,,,,,,,,,,,,,,,,,,,,,,,,,,,,,,,,,,None,,None,None,None,None,None,None,None,None,None,None,None,None,None,None,None,None,None,None,None,None,None,None,,,,,,,,,,,,,,,,,,,,,,,,,001,2022_aug_16_1115,new_task_ARSQ,2021.2.3,60.0125135692206,
,,3,nBack3Cond.xlsx,3,0.2,0.2,None,3,133,,,,,,,,,0,2,2,2,0,12,12,12,,,,,,,,,,,,,,,,,,,,,,,,,,,,,,,,,,,,,,,,,,,,,,,,,,,,,,,,,,,,,,None,,None,None,None,None,None,None,None,None,None,None,None,None,None,None,None,None,None,None,None,None,None,None,,,,,,,,,,,,,,,,,,,,,,,,,001,2022_aug_16_1115,new_task_ARSQ,2021.2.3,60.0125135692206,
,,3,nBack3Cond.xlsx,1,-0.2,0.2,None,3,134,,,,,,,,,0,2,2,2,0,13,13,13,,,,,,,,,,,,,,,,,,,,,,,,,,,,,,,,,,,,,,,,,,,,,,,,,,,,,,,,,,,,,,None,,None,None,None,None,None,None,None,None,None,None,None,None,None,None,None,None,None,None,None,None,None,None,,,,,,,,,,,,,,,,,,,,,,,,,001,2022_aug_16_1115,new_task_ARSQ,2021.2.3,60.0125135692206,
,,3,nBack3Cond.xlsx,7,-0.2,-0.2,None,3,135,,,,,,,,,0,2,2,2,0,14,14,14,,,,,,,,,,,,,,,,,,,,,,,,,,,,,,,,,,,,,,,,,,,,,,,,,,,,,,,,,,,,,,None,,None,None,None,None,None,None,None,None,None,None,None,None,None,None,None,None,None,None,None,None,None,None,,,,,,,,,,,,,,,,,,,,,,,,,001,2022_aug_16_1115,new_task_ARSQ,2021.2.3,60.0125135692206,
,,3,nBack3Cond.xlsx,9,0.2,-0.2,None,3,136,,,,,,,,,0,2,2,2,0,15,15,15,,,,,,,,,,,,,,,,,,,,,,,,,,,,,,,,,,,,,,,,,,,,,,,,,,,,,,,,,,,,,,None,,None,None,None,None,None,None,None,None,None,None,None,None,None,None,None,None,None,None,None,None,None,None,,,,,,,,,,,,,,,,,,,,,,,,,001,2022_aug_16_1115,new_task_ARSQ,2021.2.3,60.0125135692206,
,,3,nBack3Cond.xlsx,1,-0.2,0.2,space,3,137,,,,,,,,,0,2,2,2,0,16,16,16,,,,,,,,,,,,,,,,,,,,,,,,,,,,,,,,,,,,,,,,,,,,,,,,,,,,,,,,,,,,,,None,,None,None,None,None,None,None,None,None,None,None,None,None,None,None,None,None,None,None,None,None,None,None,,,,,,,,,,,,,,,,,,,,,,,,,001,2022_aug_16_1115,new_task_ARSQ,2021.2.3,60.0125135692206,
,,3,nBack3Cond.xlsx,3,0.2,0.2,None,3,138,,,,,,,,,0,2,2,2,0,17,17,17,,,,,,,,,,,,,,,,,,,,,,,,,,,,,,,,,,,,,,,,,,,,,,,,,,,,,,,,,,,,,,None,,None,None,None,None,None,None,None,None,None,None,None,None,None,None,None,None,None,None,None,None,None,None,,,,,,,,,,,,,,,,,,,,,,,,,001,2022_aug_16_1115,new_task_ARSQ,2021.2.3,60.0125135692206,
,,3,nBack3Cond.xlsx,7,-0.2,-0.2,None,3,139,,,,,,,,,0,2,2,2,0,18,18,18,,,,,,,,,,,,,,,,,,,,,,,,,,,,,,,,,,,,,,,,,,,,,,,,,,,,,,,,,,,,,,None,,None,None,None,None,None,None,None,None,None,None,None,None,None,None,None,None,None,None,None,None,None,None,,,,,,,,,,,,,,,,,,,,,,,,,001,2022_aug_16_1115,new_task_ARSQ,2021.2.3,60.0125135692206,
,,3,nBack3Cond.xlsx,5,0,0,None,3,140,,,,,,,,,0,2,2,2,0,19,19,19,,,,,,,,,,,,,,,,,,,,,,,,,,,,,,,,,,,,,,,,,,,,,,,,,,,,,,,,,,,,,,None,,None,None,None,None,None,None,None,None,None,None,None,None,None,None,None,None,None,None,None,None,None,None,,,,,,,,,,,,,,,,,,,,,,,,,001,2022_aug_16_1115,new_task_ARSQ,2021.2.3,60.0125135692206,
,,3,nBack3Cond.xlsx,3,0.2,0.2,space,3,141,,,,,,,,,0,2,2,2,0,20,20,20,,,,,,,,,,,,,,,,,,,,,,,,,,,,,,,,,,,,,,,,,,,,,,,,,,,,,,,,,,,,,,None,,None,None,None,None,None,None,None,None,None,None,None,None,None,None,None,None,None,None,None,None,None,None,,,,,,,,,,,,,,,,,,,,,,,,,001,2022_aug_16_1115,new_task_ARSQ,2021.2.3,60.0125135692206,
,,3,nBack3Cond.xlsx,8,0,-0.2,None,3,142,,,,,,,,,0,2,2,2,0,21,21,21,,,,,,,,,,,,,,,,,,,,,,,,,,,,,,,,,,,,,,,,,,,,,,,,,,,,,,,,,,,,,,None,,None,None,None,None,None,None,None,None,None,None,None,None,None,None,None,None,None,None,None,None,None,None,,,,,,,,,,,,,,,,,,,,,,,,,001,2022_aug_16_1115,new_task_ARSQ,2021.2.3,60.0125135692206,
,,3,nBack3Cond.xlsx,7,-0.2,-0.2,None,3,143,,,,,,,,,0,2,2,2,0,22,22,22,,,,,,,,,,,,,,,,,,,,,,,,,,,,,,,,,,,,,,,,,,,,,,,,,,,,,,,,,,,,,,None,,None,None,None,None,None,None,None,None,None,None,None,None,None,None,None,None,None,None,None,None,None,None,,,,,,,,,,,,,,,,,,,,,,,,,001,2022_aug_16_1115,new_task_ARSQ,2021.2.3,60.0125135692206,
,,3,nBack3Cond.xlsx,4,-0.2,0,None,3,144,,,,,,,,,0,2,2,2,0,23,23,23,,,,,,,,,,,,,,,,,,,,,,,,,,,,,,,,,,,,,,,,,,,,,,,,,,,,,,,,,,,,,,None,,None,None,None,None,None,None,None,None,None,None,None,None,None,None,None,None,None,None,None,None,None,None,,,,,,,,,,,,,,,,,,,,,,,,,001,2022_aug_16_1115,new_task_ARSQ,2021.2.3,60.0125135692206,
,,3,nBack3Cond.xlsx,8,0,-0.2,space,3,145,,,,,,,,,0,2,2,2,0,24,24,24,,,,,,,,,,,,,,,,,,,,,,,,,,,,,,,,,,,,,,,,,,,,,,,,,,,,,,,,,,,,,,None,,None,None,None,None,None,None,None,None,None,None,None,None,None,None,None,None,None,None,None,None,None,None,,,,,,,,,,,,,,,,,,,,,,,,,001,2022_aug_16_1115,new_task_ARSQ,2021.2.3,60.0125135692206,
,,3,nBack3Cond.xlsx,5,0,0,None,3,146,,,,,,,,,0,2,2,2,0,25,25,25,,,,,,,,,,,,,,,,,,,,,,,,,,,,,,,,,,,,,,,,,,,,,,,,,,,,,,,,,,,,,,None,,None,None,None,None,None,None,None,None,None,None,None,None,None,None,None,None,None,None,None,None,None,None,,,,,,,,,,,,,,,,,,,,,,,,,001,2022_aug_16_1115,new_task_ARSQ,2021.2.3,60.0125135692206,
,,3,nBack3Cond.xlsx,2,0,0.2,None,3,147,,,,,,,,,0,2,2,2,0,26,26,26,,,,,,,,,,,,,,,,,,,,,,,,,,,,,,,,,,,,,,,,,,,,,,,,,,,,,,,,,,,,,,None,,None,None,None,None,None,None,None,None,None,None,None,None,None,None,None,None,None,None,None,None,None,None,,,,,,,,,,,,,,,,,,,,,,,,,001,2022_aug_16_1115,new_task_ARSQ,2021.2.3,60.0125135692206,
,,3,nBack3Cond.xlsx,6,0.2,0,None,3,148,,,,,,,,,0,2,2,2,0,27,27,27,,,,,,,,,,,,,,,,,,,,,,,,,,,,,,,,,,,,,,,,,,,,,,,,,,,,,,,,,,,,,,None,,None,None,None,None,None,None,None,None,None,None,None,None,None,None,None,None,None,None,None,None,None,None,,,,,,,,,,,,,,,,,,,,,,,,,001,2022_aug_16_1115,new_task_ARSQ,2021.2.3,60.0125135692206,
,,3,nBack3Cond.xlsx,5,0,0,space,3,149,,,,,,,,,0,2,2,2,0,28,28,28,,,,,,,,,,,,,,,,,,,,,,,,,,,,,,,,,,,,,,,,,,,,,,,,,,,,,,,,,,,,,,None,,None,None,None,None,None,None,None,None,None,None,None,None,None,None,None,None,None,None,None,None,None,None,,,,,,,,,,,,,,,,,,,,,,,,,001,2022_aug_16_1115,new_task_ARSQ,2021.2.3,60.0125135692206,
,,3,nBack3Cond.xlsx,2,0,0.2,space,3,150,,,,,,,,,0,2,2,2,0,29,29,29,,,,,,,,,,,,,,,,,,,,,,,,,,,,,,,,,,,,,,,,,,,,,,,,,,,,,,,,,,,,,,None,,None,None,None,None,None,None,None,None,None,None,None,None,None,None,None,None,None,None,None,None,None,None,,,,,,,,,,,,,,,,,,,,,,,,,001,2022_aug_16_1115,new_task_ARSQ,2021.2.3,60.0125135692206,
,,3,nBack3Cond.xlsx,5,0,0,None,3,151,,,,,,,,,0,2,2,2,0,30,30,30,,,,,,,,,,,,,,,,,,,,,,,,,,,,,,,,,,,,,,,,,,,,,,,,,,,,,,,,,,,,,,None,,None,None,None,None,None,None,None,None,None,None,None,None,None,None,None,None,None,None,None,None,None,None,,,,,,,,,,,,,,,,,,,,,,,,,001,2022_aug_16_1115,new_task_ARSQ,2021.2.3,60.0125135692206,
,,3,nBack3Cond.xlsx,2,0,0.2,None,3,152,,,,,,,,,0,2,2,2,0,31,31,31,,,,,,,,,,,,,,,,,,,,,,,,,,,,,,,,,,,,,,,,,,,,,,,,,,,,,,,,,,,,,,None,,None,None,None,None,None,None,None,None,None,None,None,None,None,None,None,None,None,None,None,None,None,None,,,,,,,,,,,,,,,,,,,,,,,,,001,2022_aug_16_1115,new_task_ARSQ,2021.2.3,60.0125135692206,
,,3,nBack3Cond.xlsx,9,0.2,-0.2,None,3,153,,,,,,,,,0,2,2,2,0,32,32,32,,,,,,,,,,,,,,,,,,,,,,,,,,,,,,,,,,,,,,,,,,,,,,,,,,,,,,,,,,,,,,None,,None,None,None,None,None,None,None,None,None,None,None,None,None,None,None,None,None,None,None,None,None,None,,,,,,,,,,,,,,,,,,,,,,,,,001,2022_aug_16_1115,new_task_ARSQ,2021.2.3,60.0125135692206,
,,3,nBack3Cond.xlsx,6,0.2,0,None,3,154,,,,,,,,,0,2,2,2,0,33,33,33,,,,,,,,,,,,,,,,,,,,,,,,,,,,,,,,,,,,,,,,,,,,,,,,,,,,,,,,,,,,,,None,,None,None,None,None,None,None,None,None,None,None,None,None,None,None,None,None,None,None,None,None,None,None,,,,,,,,,,,,,,,,,,,,,,,,,001,2022_aug_16_1115,new_task_ARSQ,2021.2.3,60.0125135692206,
,,3,nBack3Cond.xlsx,3,0.2,0.2,None,3,155,,,,,,,,,0,2,2,2,0,34,34,34,,,,,,,,,,,,,,,,,,,,,,,,,,,,,,,,,,,,,,,,,,,,,,,,,,,,,,,,,,,,,,None,,None,None,None,None,None,None,None,None,None,None,None,None,None,None,None,None,None,None,None,None,None,None,,,,,,,,,,,,,,,,,,,,,,,,,001,2022_aug_16_1115,new_task_ARSQ,2021.2.3,60.0125135692206,
,,3,nBack3Cond.xlsx,9,0.2,-0.2,space,3,156,,,,,,,,,0,2,2,2,0,35,35,35,,,,,,,,,,,,,,,,,,,,,,,,,,,,,,,,,,,,,,,,,,,,,,,,,,,,,,,,,,,,,,None,,None,None,None,None,None,None,None,None,None,None,None,None,None,None,None,None,None,None,None,None,None,None,,,,,,,,,,,,,,,,,,,,,,,,,001,2022_aug_16_1115,new_task_ARSQ,2021.2.3,60.0125135692206,
,,3,nBack3Cond.xlsx,7,-0.2,-0.2,None,3,157,,,,,,,,,0,2,2,2,0,36,36,36,,,,,,,,,,,,,,,,,,,,,,,,,,,,,,,,,,,,,,,,,,,,,,,,,,,,,,,,,,,,,,None,,None,None,None,None,None,None,None,None,None,None,None,None,None,None,None,None,None,None,None,None,None,None,,,,,,,,,,,,,,,,,,,,,,,,,001,2022_aug_16_1115,new_task_ARSQ,2021.2.3,60.0125135692206,
,,3,nBack3Cond.xlsx,5,0,0,None,3,158,,,,,,,,,0,2,2,2,0,37,37,37,,,,,,,,,,,,,,,,,,,,,,,,,,,,,,,,,,,,,,,,,,,,,,,,,,,,,,,,,,,,,,None,,None,None,None,None,None,None,None,None,None,None,None,None,None,None,None,None,None,None,None,None,None,None,,,,,,,,,,,,,,,,,,,,,,,,,001,2022_aug_16_1115,new_task_ARSQ,2021.2.3,60.0125135692206,
,,3,nBack3Cond.xlsx,1,-0.2,0.2,None,3,159,,,,,,,,,0,2,2,2,0,38,38,38,,,,,,,,,,,,,,,,,,,,,,,,,,,,,,,,,,,,,,,,,,,,,,,,,,,,,,,,,,,,,,None,,None,None,None,None,None,None,None,None,None,None,None,None,None,None,None,None,None,None,None,None,None,None,,,,,,,,,,,,,,,,,,,,,,,,,001,2022_aug_16_1115,new_task_ARSQ,2021.2.3,60.0125135692206,
,,3,nBack3Cond.xlsx,7,-0.2,-0.2,None,3,160,,,,,,,,,0,2,2,2,0,39,39,39,,,,,,,,,,,,,,,,,,,,,,,,,,,,,,,,,,,,,,,,,,,,,,,,,,,,,,,,,,,,,,None,,None,None,None,None,None,None,None,None,None,None,None,None,None,None,None,None,None,None,None,None,None,None,,,,,,,,,,,,,,,,,,,,,,,,,001,2022_aug_16_1115,new_task_ARSQ,2021.2.3,60.0125135692206,
,,3,nBack3Cond.xlsx,5,0,0,space,3,161,,,,,,,,,0,2,2,2,0,40,40,40,,,,,,,,,,,,,,,,,,,,,,,,,,,,,,,,,,,,,,,,,,,,,,,,,,,,,,,,,,,,,,None,,None,None,None,None,None,None,None,None,None,None,None,None,None,None,None,None,None,None,None,None,None,None,,,,,,,,,,,,,,,,,,,,,,,,,001,2022_aug_16_1115,new_task_ARSQ,2021.2.3,60.0125135692206,
,,3,nBack3Cond.xlsx,7,-0.2,-0.2,None,3,162,,,,,,,,,0,2,2,2,0,41,41,41,,,,,,,,,,,,,,,,,,,,,,,,,,,,,,,,,,,,,,,,,,,,,,,,,,,,,,,,,,,,,,None,,None,None,None,None,None,None,None,None,None,None,None,None,None,None,None,None,None,None,None,None,None,None,,,,,,,,,,,,,,,,,,,,,,,,,001,2022_aug_16_1115,new_task_ARSQ,2021.2.3,60.0125135692206,
,,3,nBack3Cond.xlsx,3,0.2,0.2,None,3,163,,,,,,,,,0,2,2,2,0,42,42,42,,,,,,,,,,,,,,,,,,,,,,,,,,,,,,,,,,,,,,,,,,,,,,,,,,,,,,,,,,,,,,None,,None,None,None,None,None,None,None,None,None,None,None,None,None,None,None,None,None,None,None,None,None,None,,,,,,,,,,,,,,,,,,,,,,,,,001,2022_aug_16_1115,new_task_ARSQ,2021.2.3,60.0125135692206,
,,3,nBack3Cond.xlsx,8,0,-0.2,None,3,164,,,,,,,,,0,2,2,2,0,43,43,43,,,,,,,,,,,,,,,,,,,,,,,,,,,,,,,,,,,,,,,,,,,,,,,,,,,,,,,,,,,,,,None,,None,None,None,None,None,None,None,None,None,None,None,None,None,None,None,None,None,None,None,None,None,None,,,,,,,,,,,,,,,,,,,,,,,,,001,2022_aug_16_1115,new_task_ARSQ,2021.2.3,60.0125135692206,
,,3,nBack3Cond.xlsx,7,-0.2,-0.2,space,3,165,,,,,,,,,0,2,2,2,0,44,44,44,,,,,,,,,,,,,,,,,,,,,,,,,,,,,,,,,,,,,,,,,,,,,,,,,,,,,,,,,,,,,,None,,None,None,None,None,None,None,None,None,None,None,None,None,None,None,None,None,None,None,None,None,None,None,,,,,,,,,,,,,,,,,,,,,,,,,001,2022_aug_16_1115,new_task_ARSQ,2021.2.3,60.0125135692206,
,,3,nBack3Cond.xlsx,9,0.2,-0.2,None,3,166,,,,,,,,,0,2,2,2,0,45,45,45,,,,,,,,,,,,,,,,,,,,,,,,,,,,,,,,,,,,,,,,,,,,,,,,,,,,,,,,,,,,,,None,,None,None,None,None,None,None,None,None,None,None,None,None,None,None,None,None,None,None,None,None,None,None,,,,,,,,,,,,,,,,,,,,,,,,,001,2022_aug_16_1115,new_task_ARSQ,2021.2.3,60.0125135692206,
,,3,nBack3Cond.xlsx,9,0.2,-0.2,None,3,167,,,,,,,,,0,2,2,2,0,46,46,46,,,,,,,,,,,,,,,,,,,,,,,,,,,,,,,,,,,,,,,,,,,,,,,,,,,,,,,,,,,,,,None,,None,None,None,None,None,None,None,None,None,None,None,None,None,None,None,None,None,None,None,None,None,None,,,,,,,,,,,,,,,,,,,,,,,,,001,2022_aug_16_1115,new_task_ARSQ,2021.2.3,60.0125135692206,
,,3,nBack3Cond.xlsx,3,0.2,0.2,None,3,168,,,,,,,,,0,2,2,2,0,47,47,47,,,,,,,,,,,,,,,,,,,,,,,,,,,,,,,,,,,,,,,,,,,,,,,,,,,,,,,,,,,,,,None,,None,None,None,None,None,None,None,None,None,None,None,None,None,None,None,None,None,None,None,None,None,None,,,,,,,,,,,,,,,,,,,,,,,,,001,2022_aug_16_1115,new_task_ARSQ,2021.2.3,60.0125135692206,
,,3,nBack3Cond.xlsx,1,-0.2,0.2,None,3,169,,,,,,,,,0,2,2,2,0,48,48,48,,,,,,,,,,,,,,,,,,,,,,,,,,,,,,,,,,,,,,,,,,,,,,,,,,,,,,,,,,,,,,None,,None,None,None,None,None,None,None,None,None,None,None,None,None,None,None,None,None,None,None,None,None,None,,,,,,,,,,,,,,,,,,,,,,,,,001,2022_aug_16_1115,new_task_ARSQ,2021.2.3,60.0125135692206,
,,3,nBack3Cond.xlsx,5,0,0,None,3,170,,,,,,,,,0,2,2,2,0,49,49,49,,,,,,,,,,,,,,,,,,,,,,,,,,,,,,,,,,,,,,,,,,,,,,,,,,,,,,,,,,,,,,None,,None,None,None,None,None,None,None,None,None,None,None,None,None,None,None,None,None,None,None,None,None,None,,,,,,,,,,,,,,,,,,,,,,,,,001,2022_aug_16_1115,new_task_ARSQ,2021.2.3,60.0125135692206,
,,3,nBack3Cond.xlsx,3,0.2,0.2,space,3,171,,,,,,,,,0,2,2,2,0,50,50,50,,,,,,,,,,,,,,,,,,,,,,,,,,,,,,,,,,,,,,,,,,,,,,,,,,,,,,,,,,,,,,None,,None,None,None,None,None,None,None,None,None,None,None,None,None,None,None,None,None,None,None,None,None,None,,,,,,,,,,,,,,,,,,,,,,,,,001,2022_aug_16_1115,new_task_ARSQ,2021.2.3,60.0125135692206,
,,3,nBack3Cond.xlsx,4,-0.2,0,None,3,172,,,,,,,,,0,2,2,2,0,51,51,51,,,,,,,,,,,,,,,,,,,,,,,,,,,,,,,,,,,,,,,,,,,,,,,,,,,,,,,,,,,,,,None,,None,None,None,None,None,None,None,None,None,None,None,None,None,None,None,None,None,None,None,None,None,None,,,,,,,,,,,,,,,,,,,,,,,,,001,2022_aug_16_1115,new_task_ARSQ,2021.2.3,60.0125135692206,
,,3,nBack3Cond.xlsx,7,-0.2,-0.2,None,3,173,,,,,,,,,0,2,2,2,0,52,52,52,,,,,,,,,,,,,,,,,,,,,,,,,,,,,,,,,,,,,,,,,,,,,,,,,,,,,,,,,,,,,,None,,None,None,None,None,None,None,None,None,None,None,None,None,None,None,None,None,None,None,None,None,None,None,,,,,,,,,,,,,,,,,,,,,,,,,001,2022_aug_16_1115,new_task_ARSQ,2021.2.3,60.0125135692206,
,,3,nBack3Cond.xlsx,4,-0.2,0,None,3,174,,,,,,,,,0,2,2,2,0,53,53,53,,,,,,,,,,,,,,,,,,,,,,,,,,,,,,,,,,,,,,,,,,,,,,,,,,,,,,,,,,,,,,None,,None,None,None,None,None,None,None,None,None,None,None,None,None,None,None,None,None,None,None,None,None,None,,,,,,,,,,,,,,,,,,,,,,,,,001,2022_aug_16_1115,new_task_ARSQ,2021.2.3,60.0125135692206,
,,3,nBack3Cond.xlsx,4,-0.2,0,space,3,175,,,,,,,,,0,2,2,2,0,54,54,54,,,,,,,,,,,,,,,,,,,,,,,,,,,,,,,,,,,,,,,,,,,,,,,,,,,,,,,,,,,,,,None,,None,None,None,None,None,None,None,None,None,None,None,None,None,None,None,None,None,None,None,None,None,None,,,,,,,,,,,,,,,,,,,,,,,,,001,2022_aug_16_1115,new_task_ARSQ,2021.2.3,60.0125135692206,
,,3,nBack3Cond.xlsx,5,0,0,None,3,176,,,,,,,,,0,2,2,2,0,55,55,55,,,,,,,,,,,,,,,,,,,,,,,,,,,,,,,,,,,,,,,,,,,,,,,,,,,,,,,,,,,,,,None,,None,None,None,None,None,None,None,None,None,None,None,None,None,None,None,None,None,None,None,None,None,None,,,,,,,,,,,,,,,,,,,,,,,,,001,2022_aug_16_1115,new_task_ARSQ,2021.2.3,60.0125135692206,
,,3,nBack3Cond.xlsx,6,0.2,0,None,3,177,,,,,,,,,0,2,2,2,0,56,56,56,,,,,,,,,,,,,,,,,,,,,,,,,,,,,,,,,,,,,,,,,,,,,,,,,,,,,,,,,,,,,,None,,None,None,None,None,None,None,None,None,None,None,None,None,None,None,None,None,None,None,None,None,None,None,,,,,,,,,,,,,,,,,,,,,,,,,001,2022_aug_16_1115,new_task_ARSQ,2021.2.3,60.0125135692206,
,,3,nBack3Cond.xlsx,2,0,0.2,None,3,178,,,,,,,,,0,2,2,2,0,57,57,57,,,,,,,,,,,,,,,,,,,,,,,,,,,,,,,,,,,,,,,,,,,,,,,,,,,,,,,,,,,,,,None,,None,None,None,None,None,None,None,None,None,None,None,None,None,None,None,None,None,None,None,None,None,None,,,,,,,,,,,,,,,,,,,,,,,,,001,2022_aug_16_1115,new_task_ARSQ,2021.2.3,60.0125135692206,
,,3,nBack3Cond.xlsx,7,-0.2,-0.2,None,3,179,,,,,,,,,0,2,2,2,0,58,58,58,,,,,,,,,,,,,,,,,,,,,,,,,,,,,,,,,,,,,,,,,,,,,,,,,,,,,,,,,,,,,,None,,None,None,None,None,None,None,None,None,None,None,None,None,None,None,None,None,None,None,None,None,None,None,,,,,,,,,,,,,,,,,,,,,,,,,001,2022_aug_16_1115,new_task_ARSQ,2021.2.3,60.0125135692206,
,,3,nBack3Cond.xlsx,6,0.2,0,space,3,180,,,,,,,,,0,2,2,2,0,59,59,59,,,,,,,,,,,,,,,,,,,,,,,,,,,,,,,,,,,,,,,,,,,,,,,,,,,,,,,,,,,,,,None,,None,None,None,None,None,None,None,None,None,None,None,None,None,None,None,None,None,None,None,None,None,None,,,,,,,,,,,,,,,,,,,,,,,,,001,2022_aug_16_1115,new_task_ARSQ,2021.2.3,60.0125135692206,
,,3,nBack3Cond.xlsx,6,0.2,0,None,1,1,,,,,,,,,0,2,2,2,0,0,0,0,,,,,,,,,,,,,,,,,,,,,,,,,,,,,,,,,,,,,,,,,,,,,,,,,,,,,,,,,,,,,,,,,,,,,,,,,,,,,,,,,,,,,,,,,,,,,,,,,,,,,,,,,,,,,,001,2022_aug_16_1115,new_task_ARSQ,2021.2.3,60.0125135692206,
,,,,6,0.2,0,None,1,1,,,,,,,,,,,,,0,0,0,0,,,,,,,,,,,,,,,,,,,,,,,,,,,,,,,,,,,,,,,,,,,,,,,,,,,,,,,,,,,,,,,,,,,,,,,,,,,,,,,,,,,,,,19.48955417100001,None,space,18.313404997999896,19.48955417100001,None,,,,,,,,,,,,,,,,,,,001,2022_aug_16_1115,new_task_ARSQ,2021.2.3,60.0125135692206,
,,,,6,0.2,0,None,1,1,,,,,,,,,,,,,0,0,0,0,,,,,,,,,,,,,,,,,,,,,,,,,,,,,,,,,,,,,,,,,,,,,,,,,,,,,,,,,,,,,,,,,,,,,,,,,,,,,,,,,,,,,,,,,,,,37.81917162699983,None,space,4.266828237000027,37.81917162699983,None,,,,,,,,,,,,,001,2022_aug_16_1115,new_task_ARSQ,2021.2.3,60.0125135692206,
,,,,6,0.2,0,None,1,1,,,,,,,,,,,,,0,0,0,0,,,,,,,,,,,,,,,,,,,,,,,,,,,,,,,,,,,,,,,,,,,,,,,,,,,,,,,,,,,,,,,,,,,,,,,,,,,,,,,,,,,,,,,,,,,,,,,,,,37.81917162699983,None,s,4.867191528999911,42.102444504000005,None,,,,,,,001,2022_aug_16_1115,new_task_ARSQ,2021.2.3,60.0125135692206,
,,,,6,0.2,0,None,1,1,,,,,,,,,,,,,0,0,0,0,,,,,,,,,,,,,,,,,,,,,,,,,,,,,,,,,,,,,,,,,,,,,,,,,,,,,,,,,,,,,,,,,,,,,,,,,,,,,,,,,,,,,,,,,,,,,,,,,,,,,,,,46.9856905019999,None,None,46.9856905019999,None,,001,2022_aug_16_1115,new_task_ARSQ,2021.2.3,60.0125135692206,
