itemnumber,itemtext,nbackInstruction,condsFile,square,loc1,loc2,corrAns,trialsNum,trialNum,wakeup.thisRepN,wakeup.thisTrialN,wakeup.thisN,wakeup.thisIndex,questions.thisRepN,questions.thisTrialN,questions.thisN,questions.thisIndex,nb_taskloop.thisRepN,nb_taskloop.thisTrialN,nb_taskloop.thisN,nb_taskloop.thisIndex,nb_trials.thisRepN,nb_trials.thisTrialN,nb_trials.thisN,nb_trials.thisIndex,key_resp_3.keys,key_resp_3.rt,key_resp_3.started,key_resp_3.stopped,text_4.started,text_4.stopped,mouse_2.x,mouse_2.y,mouse_2.leftButton,mouse_2.midButton,mouse_2.rightButton,mouse_2.started,mouse_2.stopped,h_eoec.started,h_eoec.stopped,text_2.started,text_2.stopped,key_resp.keys,key_resp.started,key_resp.stopped,text_3.started,text_3.stopped,key_resp_2.keys,key_resp_2.started,key_resp_2.stopped,img_whte.started,img_whte.stopped,img_black.started,img_black.stopped,text_5.started,text_5.stopped,key_resp_4.keys,key_resp_4.rt,key_resp_4.started,key_resp_4.stopped,mouse.x,mouse.y,mouse.leftButton,mouse.midButton,mouse.rightButton,mouse.started,mouse.stopped,h_arsq.started,h_arsq.stopped,slider.response,slider.rt,slider.started,slider.stopped,text.started,text.stopped,key_resp_9.keys,key_resp_9.rt,key_resp_9.started,key_resp_9.stopped,instrText.started,instrText.stopped,h_nback.started,h_nback.stopped,instrImg.started,instrImg.stopped,trialResp.keys,trialResp.started,trialResp.stopped,trialSquare.started,trialSquare.stopped,trialFix.started,trialFix.stopped,gridLine1.started,gridLine1.stopped,gridLine2.started,gridLine2.stopped,gridLine3.started,gridLine3.stopped,gridLine4.started,gridLine4.stopped,gridLine5.started,gridLine5.stopped,gridLine6.started,gridLine6.stopped,gridLine7.started,gridLine7.stopped,gridLine8.started,gridLine8.stopped,participant,session,date,expName,psychopyVersion,frameRate,
,,,,,,,,,,,,,,,,,,,,,,,,,,s,0.5316820959999404,5.435308050999993,None,,,,,,,,,,,,,,,,,,,,,,,,,,,,,,,,,,,,,,,,,,,,,,,,,,,,,,,,,,,,,,,,,,,,,,,,,,,,,,,,,001,2022_aug_16_1102,test6,2021.2.3,60.064273577875646,
,,,,,,,,,,,,,,,,,,,,,,,,,,,,,,5.435308050999993,None,-0.8518519,-0.49907407,0,0,0,0.008907326400731108,None,,,,,,,,,,,,,,,,,,,,,,,,,,,,,,,,,,,,,,,,,,,,,,,,,,,,,,,,,,,,,,,,,,,,,,,,001,2022_aug_16_1102,test6,2021.2.3,60.064273577875646,
,,,,,,,,,,,,,,,,,,,,,,,,,,,,,,,,,,,,,,,5.435308050999993,None,None,None,None,None,None,,,,,,,,,,,,,,,,,,,,,,,,,,,,,,,,,,,,,,,,,,,,,,,,,,,,,,,,,,,,,,,,,001,2022_aug_16_1102,test6,2021.2.3,60.064273577875646,
,,,,,,,,,,,,,,,,,,,,,,,,,,,,,,,,,,,,,,,,,,,,,,None,None,None,None,None,,,,,,,,,,,,,,,,,,,,,,,,,,,,,,,,,,,,,,,,,,,,,,,,,,,,,,,,,,,,001,2022_aug_16_1102,test6,2021.2.3,60.064273577875646,
,,,,,,,,,,0,0,0,0,,,,,,,,,,,,,,,,,,,,,,,,,,,,,,,,,,,,,,None,None,None,None,,,,,,,,,,,,,,,,,,,,,,,,,,,,,,,,,,,,,,,,,,,,,,,,,,,,,,,,001,2022_aug_16_1102,test6,2021.2.3,60.064273577875646,
,,,,,,,,,,1,0,1,0,,,,,,,,,,,,,,,,,,,,,,,,,,,,,,,,,,,,,,None,None,None,None,,,,,,,,,,,,,,,,,,,,,,,,,,,,,,,,,,,,,,,,,,,,,,,,,,,,,,,,001,2022_aug_16_1102,test6,2021.2.3,60.064273577875646,
,,,,,,,,,,2,0,2,0,,,,,,,,,,,,,,,,,,,,,,,,,,,,,,,,,,,,,,None,None,None,None,,,,,,,,,,,,,,,,,,,,,,,,,,,,,,,,,,,,,,,,,,,,,,,,,,,,,,,,001,2022_aug_16_1102,test6,2021.2.3,60.064273577875646,
,,,,,,,,,,3,0,3,0,,,,,,,,,,,,,,,,,,,,,,,,,,,,,,,,,,,,,,None,None,None,None,,,,,,,,,,,,,,,,,,,,,,,,,,,,,,,,,,,,,,,,,,,,,,,,,,,,,,,,001,2022_aug_16_1102,test6,2021.2.3,60.064273577875646,
,,,,,,,,,,,,,,,,,,,,,,,,,,,,,,,,,,,,,,,,,,,,,,,,,,,,,,,5.988636161000045,None,space,0.694183143000032,5.988636161000045,None,,,,,,,,,,,,,,,,,,,,,,,,,,,,,,,,,,,,,,,,,,,,,,,,,,001,2022_aug_16_1102,test6,2021.2.3,60.064273577875646,
,,,,,,,,,,,,,,,,,,,,,,,,,,,,,,,,,,,,,,,,,,,,,,,,,,,,,,,,,,,,,-0.8518519,-0.49907407,0,0,0,0.0057095483998637064,None,,,,,,,,,,,,,,,,,,,,,,,,,,,,,,,,,,,,,,,,,,,001,2022_aug_16_1102,test6,2021.2.3,60.064273577875646,
17,I felt relaxed,1,nBack1Cond.xlsx,6,0.2,0,None,1,1,,,,,0,0,0,16,0,0,0,0,0,0,0,0,,,,,,,,,,,,,,,,,,,,,,,,,,,,,,,,,,,,,,,,,,,5.988636161000045,None,None,None,6.730241988999978,None,6.730241988999978,None,s,0.5937355969999771,6.730241988999978,None,7.647818787999995,None,7.647818787999995,None,7.647818787999995,None,None,None,None,None,None,None,None,None,None,None,None,None,None,None,None,None,None,None,None,None,None,None,None,,001,2022_aug_16_1102,test6,2021.2.3,60.064273577875646,
17,I felt relaxed,1,nBack1Cond.xlsx,6,0.2,0,space,1,2,,,,,0,0,0,16,0,0,0,0,0,1,1,1,,,,,,,,,,,,,,,,,,,,,,,,,,,,,,,,,,,,,,,,,,,,,,,,,,,,,,,,,,,,,None,None,None,None,None,None,None,None,None,None,None,None,None,None,None,None,None,None,None,None,None,None,None,,001,2022_aug_16_1102,test6,2021.2.3,60.064273577875646,
17,I felt relaxed,1,nBack1Cond.xlsx,2,0,0.2,None,1,3,,,,,0,0,0,16,0,0,0,0,0,2,2,2,,,,,,,,,,,,,,,,,,,,,,,,,,,,,,,,,,,,,,,,,,,,,,,,,,,,,,,,,,,,,None,None,None,None,None,None,None,None,None,None,None,None,None,None,None,None,None,None,None,None,None,None,None,,001,2022_aug_16_1102,test6,2021.2.3,60.064273577875646,
17,I felt relaxed,1,nBack1Cond.xlsx,9,0.2,-0.2,None,1,4,,,,,0,0,0,16,0,0,0,0,0,3,3,3,,,,,,,,,,,,,,,,,,,,,,,,,,,,,,,,,,,,,,,,,,,,,,,,,,,,,,,,,,,,,None,None,None,None,None,None,None,None,None,None,None,None,None,None,None,None,None,None,None,None,None,None,None,,001,2022_aug_16_1102,test6,2021.2.3,60.064273577875646,
17,I felt relaxed,1,nBack1Cond.xlsx,9,0.2,-0.2,space,1,5,,,,,0,0,0,16,0,0,0,0,0,4,4,4,,,,,,,,,,,,,,,,,,,,,,,,,,,,,,,,,,,,,,,,,,,,,,,,,,,,,,,,,,,,,None,None,None,None,None,None,None,None,None,None,None,None,None,None,None,None,None,None,None,None,None,None,None,,001,2022_aug_16_1102,test6,2021.2.3,60.064273577875646,
17,I felt relaxed,1,nBack1Cond.xlsx,6,0.2,0,None,1,6,,,,,0,0,0,16,0,0,0,0,0,5,5,5,,,,,,,,,,,,,,,,,,,,,,,,,,,,,,,,,,,,,,,,,,,,,,,,,,,,,,,,,,,,,None,None,None,None,None,None,None,None,None,None,None,None,None,None,None,None,None,None,None,None,None,None,None,,001,2022_aug_16_1102,test6,2021.2.3,60.064273577875646,
17,I felt relaxed,1,nBack1Cond.xlsx,4,-0.2,0,None,1,7,,,,,0,0,0,16,0,0,0,0,0,6,6,6,,,,,,,,,,,,,,,,,,,,,,,,,,,,,,,,,,,,,,,,,,,,,,,,,,,,,,,,,,,,,None,None,None,None,None,None,None,None,None,None,None,None,None,None,None,None,None,None,None,None,None,None,None,,001,2022_aug_16_1102,test6,2021.2.3,60.064273577875646,
17,I felt relaxed,1,nBack1Cond.xlsx,3,0.2,0.2,None,1,8,,,,,0,0,0,16,0,0,0,0,0,7,7,7,,,,,,,,,,,,,,,,,,,,,,,,,,,,,,,,,,,,,,,,,,,,,,,,,,,,,,,,,,,,,None,None,None,None,None,None,None,None,None,None,None,None,None,None,None,None,None,None,None,None,None,None,None,,001,2022_aug_16_1102,test6,2021.2.3,60.064273577875646,
17,I felt relaxed,1,nBack1Cond.xlsx,3,0.2,0.2,space,1,9,,,,,0,0,0,16,0,0,0,0,0,8,8,8,,,,,,,,,,,,,,,,,,,,,,,,,,,,,,,,,,,,,,,,,,,,,,,,,,,,,,,,,,,,,None,None,None,None,None,None,None,None,None,None,None,None,None,None,None,None,None,None,None,None,None,None,None,,001,2022_aug_16_1102,test6,2021.2.3,60.064273577875646,
17,I felt relaxed,1,nBack1Cond.xlsx,8,0,-0.2,None,1,10,,,,,0,0,0,16,0,0,0,0,0,9,9,9,,,,,,,,,,,,,,,,,,,,,,,,,,,,,,,,,,,,,,,,,,,,,,,,,,,,,,,,,,,,,None,None,None,None,None,None,None,None,None,None,None,None,None,None,None,None,None,None,None,None,None,None,None,,001,2022_aug_16_1102,test6,2021.2.3,60.064273577875646,
17,I felt relaxed,1,nBack1Cond.xlsx,1,-0.2,0.2,None,1,11,,,,,0,0,0,16,0,0,0,0,0,10,10,10,,,,,,,,,,,,,,,,,,,,,,,,,,,,,,,,,,,,,,,,,,,,,,,,,,,,,,,,,,,,,None,None,None,None,None,None,None,None,None,None,None,None,None,None,None,None,None,None,None,None,None,None,None,,001,2022_aug_16_1102,test6,2021.2.3,60.064273577875646,
17,I felt relaxed,1,nBack1Cond.xlsx,2,0,0.2,None,1,12,,,,,0,0,0,16,0,0,0,0,0,11,11,11,,,,,,,,,,,,,,,,,,,,,,,,,,,,,,,,,,,,,,,,,,,,,,,,,,,,,,,,,,,,,None,None,None,None,None,None,None,None,None,None,None,None,None,None,None,None,None,None,None,None,None,None,None,,001,2022_aug_16_1102,test6,2021.2.3,60.064273577875646,
17,I felt relaxed,1,nBack1Cond.xlsx,4,-0.2,0,None,1,13,,,,,0,0,0,16,0,0,0,0,0,12,12,12,,,,,,,,,,,,,,,,,,,,,,,,,,,,,,,,,,,,,,,,,,,,,,,,,,,,,,,,,,,,,None,None,None,None,None,None,None,None,None,None,None,None,None,None,None,None,None,None,None,None,None,None,None,,001,2022_aug_16_1102,test6,2021.2.3,60.064273577875646,
17,I felt relaxed,1,nBack1Cond.xlsx,4,-0.2,0,space,1,14,,,,,0,0,0,16,0,0,0,0,0,13,13,13,,,,,,,,,,,,,,,,,,,,,,,,,,,,,,,,,,,,,,,,,,,,,,,,,,,,,,,,,,,,,None,None,None,None,None,None,None,None,None,None,None,None,None,None,None,None,None,None,None,None,None,None,None,,001,2022_aug_16_1102,test6,2021.2.3,60.064273577875646,
17,I felt relaxed,1,nBack1Cond.xlsx,8,0,-0.2,None,1,15,,,,,0,0,0,16,0,0,0,0,0,14,14,14,,,,,,,,,,,,,,,,,,,,,,,,,,,,,,,,,,,,,,,,,,,,,,,,,,,,,,,,,,,,,None,None,None,None,None,None,None,None,None,None,None,None,None,None,None,None,None,None,None,None,None,None,None,,001,2022_aug_16_1102,test6,2021.2.3,60.064273577875646,
17,I felt relaxed,1,nBack1Cond.xlsx,5,0,0,None,1,16,,,,,0,0,0,16,0,0,0,0,0,15,15,15,,,,,,,,,,,,,,,,,,,,,,,,,,,,,,,,,,,,,,,,,,,,,,,,,,,,,,,,,,,,,None,None,None,None,None,None,None,None,None,None,None,None,None,None,None,None,None,None,None,None,None,None,None,,001,2022_aug_16_1102,test6,2021.2.3,60.064273577875646,
17,I felt relaxed,1,nBack1Cond.xlsx,5,0,0,space,1,17,,,,,0,0,0,16,0,0,0,0,0,16,16,16,,,,,,,,,,,,,,,,,,,,,,,,,,,,,,,,,,,,,,,,,,,,,,,,,,,,,,,,,,,,,None,None,None,None,None,None,None,None,None,None,None,None,None,None,None,None,None,None,None,None,None,None,None,,001,2022_aug_16_1102,test6,2021.2.3,60.064273577875646,
17,I felt relaxed,1,nBack1Cond.xlsx,1,-0.2,0.2,None,1,18,,,,,0,0,0,16,0,0,0,0,0,17,17,17,,,,,,,,,,,,,,,,,,,,,,,,,,,,,,,,,,,,,,,,,,,,,,,,,,,,,,,,,,,,,None,None,None,None,None,None,None,None,None,None,None,None,None,None,None,None,None,None,None,None,None,None,None,,001,2022_aug_16_1102,test6,2021.2.3,60.064273577875646,
17,I felt relaxed,1,nBack1Cond.xlsx,3,0.2,0.2,None,1,19,,,,,0,0,0,16,0,0,0,0,0,18,18,18,,,,,,,,,,,,,,,,,,,,,,,,,,,,,,,,,,,,,,,,,,,,,,,,,,,,,,,,,,,,,None,None,None,None,None,None,None,None,None,None,None,None,None,None,None,None,None,None,None,None,None,None,None,,001,2022_aug_16_1102,test6,2021.2.3,60.064273577875646,
17,I felt relaxed,1,nBack1Cond.xlsx,6,0.2,0,None,1,20,,,,,0,0,0,16,0,0,0,0,0,19,19,19,,,,,,,,,,,,,,,,,,,,,,,,,,,,,,,,,,,,,,,,,,,,,,,,,,,,,,,,,,,,,None,None,None,None,None,None,None,None,None,None,None,None,None,None,None,None,None,None,None,None,None,None,None,,001,2022_aug_16_1102,test6,2021.2.3,60.064273577875646,
17,I felt relaxed,1,nBack1Cond.xlsx,1,-0.2,0.2,None,1,21,,,,,0,0,0,16,0,0,0,0,0,20,20,20,,,,,,,,,,,,,,,,,,,,,,,,,,,,,,,,,,,,,,,,,,,,,,,,,,,,,,,,,,,,,None,None,None,None,None,None,None,None,None,None,None,None,None,None,None,None,None,None,None,None,None,None,None,,001,2022_aug_16_1102,test6,2021.2.3,60.064273577875646,
17,I felt relaxed,1,nBack1Cond.xlsx,1,-0.2,0.2,space,1,22,,,,,0,0,0,16,0,0,0,0,0,21,21,21,,,,,,,,,,,,,,,,,,,,,,,,,,,,,,,,,,,,,,,,,,,,,,,,,,,,,,,,,,,,,None,None,None,None,None,None,None,None,None,None,None,None,None,None,None,None,None,None,None,None,None,None,None,,001,2022_aug_16_1102,test6,2021.2.3,60.064273577875646,
17,I felt relaxed,1,nBack1Cond.xlsx,1,-0.2,0.2,space,1,23,,,,,0,0,0,16,0,0,0,0,0,22,22,22,,,,,,,,,,,,,,,,,,,,,,,,,,,,,,,,,,,,,,,,,,,,,,,,,,,,,,,,,,,,,None,None,None,None,None,None,None,None,None,None,None,None,None,None,None,None,None,None,None,None,None,None,None,,001,2022_aug_16_1102,test6,2021.2.3,60.064273577875646,
17,I felt relaxed,1,nBack1Cond.xlsx,3,0.2,0.2,None,1,24,,,,,0,0,0,16,0,0,0,0,0,23,23,23,,,,,,,,,,,,,,,,,,,,,,,,,,,,,,,,,,,,,,,,,,,,,,,,,,,,,,,,,,,,,None,None,None,None,None,None,None,None,None,None,None,None,None,None,None,None,None,None,None,None,None,None,None,,001,2022_aug_16_1102,test6,2021.2.3,60.064273577875646,
17,I felt relaxed,1,nBack1Cond.xlsx,2,0,0.2,None,1,25,,,,,0,0,0,16,0,0,0,0,0,24,24,24,,,,,,,,,,,,,,,,,,,,,,,,,,,,,,,,,,,,,,,,,,,,,,,,,,,,,,,,,,,,,None,None,None,None,None,None,None,None,None,None,None,None,None,None,None,None,None,None,None,None,None,None,None,,001,2022_aug_16_1102,test6,2021.2.3,60.064273577875646,
17,I felt relaxed,1,nBack1Cond.xlsx,1,-0.2,0.2,None,1,26,,,,,0,0,0,16,0,0,0,0,0,25,25,25,,,,,,,,,,,,,,,,,,,,,,,,,,,,,,,,,,,,,,,,,,,,,,,,,,,,,,,,,,,,,None,None,None,None,None,None,None,None,None,None,None,None,None,None,None,None,None,None,None,None,None,None,None,,001,2022_aug_16_1102,test6,2021.2.3,60.064273577875646,
17,I felt relaxed,1,nBack1Cond.xlsx,7,-0.2,-0.2,None,1,27,,,,,0,0,0,16,0,0,0,0,0,26,26,26,,,,,,,,,,,,,,,,,,,,,,,,,,,,,,,,,,,,,,,,,,,,,,,,,,,,,,,,,,,,,None,None,None,None,None,None,None,None,None,None,None,None,None,None,None,None,None,None,None,None,None,None,None,,001,2022_aug_16_1102,test6,2021.2.3,60.064273577875646,
17,I felt relaxed,1,nBack1Cond.xlsx,7,-0.2,-0.2,space,1,28,,,,,0,0,0,16,0,0,0,0,0,27,27,27,,,,,,,,,,,,,,,,,,,,,,,,,,,,,,,,,,,,,,,,,,,,,,,,,,,,,,,,,,,,,None,None,None,None,None,None,None,None,None,None,None,None,None,None,None,None,None,None,None,None,None,None,None,,001,2022_aug_16_1102,test6,2021.2.3,60.064273577875646,
17,I felt relaxed,1,nBack1Cond.xlsx,2,0,0.2,None,1,29,,,,,0,0,0,16,0,0,0,0,0,28,28,28,,,,,,,,,,,,,,,,,,,,,,,,,,,,,,,,,,,,,,,,,,,,,,,,,,,,,,,,,,,,,None,None,None,None,None,None,None,None,None,None,None,None,None,None,None,None,None,None,None,None,None,None,None,,001,2022_aug_16_1102,test6,2021.2.3,60.064273577875646,
17,I felt relaxed,1,nBack1Cond.xlsx,6,0.2,0,None,1,30,,,,,0,0,0,16,0,0,0,0,0,29,29,29,,,,,,,,,,,,,,,,,,,,,,,,,,,,,,,,,,,,,,,,,,,,,,,,,,,,,,,,,,,,,None,None,None,None,None,None,None,None,None,None,None,None,None,None,None,None,None,None,None,None,None,None,None,,001,2022_aug_16_1102,test6,2021.2.3,60.064273577875646,
17,I felt relaxed,1,nBack1Cond.xlsx,4,-0.2,0,None,1,31,,,,,0,0,0,16,0,0,0,0,0,30,30,30,,,,,,,,,,,,,,,,,,,,,,,,,,,,,,,,,,,,,,,,,,,,,,,,,,,,,,,,,,,,,None,None,None,None,None,None,None,None,None,None,None,None,None,None,None,None,None,None,None,None,None,None,None,,001,2022_aug_16_1102,test6,2021.2.3,60.064273577875646,
17,I felt relaxed,1,nBack1Cond.xlsx,4,-0.2,0,space,1,32,,,,,0,0,0,16,0,0,0,0,0,31,31,31,,,,,,,,,,,,,,,,,,,,,,,,,,,,,,,,,,,,,,,,,,,,,,,,,,,,,,,,,,,,,None,None,None,None,None,None,None,None,None,None,None,None,None,None,None,None,None,None,None,None,None,None,None,,001,2022_aug_16_1102,test6,2021.2.3,60.064273577875646,
17,I felt relaxed,1,nBack1Cond.xlsx,2,0,0.2,None,1,33,,,,,0,0,0,16,0,0,0,0,0,32,32,32,,,,,,,,,,,,,,,,,,,,,,,,,,,,,,,,,,,,,,,,,,,,,,,,,,,,,,,,,,,,,None,None,None,None,None,None,None,None,None,None,None,None,None,None,None,None,None,None,None,None,None,None,None,,001,2022_aug_16_1102,test6,2021.2.3,60.064273577875646,
17,I felt relaxed,1,nBack1Cond.xlsx,9,0.2,-0.2,None,1,34,,,,,0,0,0,16,0,0,0,0,0,33,33,33,,,,,,,,,,,,,,,,,,,,,,,,,,,,,,,,,,,,,,,,,,,,,,,,,,,,,,,,,,,,,None,None,None,None,None,None,None,None,None,None,None,None,None,None,None,None,None,None,None,None,None,None,None,,001,2022_aug_16_1102,test6,2021.2.3,60.064273577875646,
17,I felt relaxed,1,nBack1Cond.xlsx,9,0.2,-0.2,space,1,35,,,,,0,0,0,16,0,0,0,0,0,34,34,34,,,,,,,,,,,,,,,,,,,,,,,,,,,,,,,,,,,,,,,,,,,,,,,,,,,,,,,,,,,,,None,None,None,None,None,None,None,None,None,None,None,None,None,None,None,None,None,None,None,None,None,None,None,,001,2022_aug_16_1102,test6,2021.2.3,60.064273577875646,
17,I felt relaxed,1,nBack1Cond.xlsx,3,0.2,0.2,None,1,36,,,,,0,0,0,16,0,0,0,0,0,35,35,35,,,,,,,,,,,,,,,,,,,,,,,,,,,,,,,,,,,,,,,,,,,,,,,,,,,,,,,,,,,,,None,None,None,None,None,None,None,None,None,None,None,None,None,None,None,None,None,None,None,None,None,None,None,,001,2022_aug_16_1102,test6,2021.2.3,60.064273577875646,
17,I felt relaxed,1,nBack1Cond.xlsx,7,-0.2,-0.2,None,1,37,,,,,0,0,0,16,0,0,0,0,0,36,36,36,,,,,,,,,,,,,,,,,,,,,,,,,,,,,,,,,,,,,,,,,,,,,,,,,,,,,,,,,,,,,None,None,None,None,None,None,None,None,None,None,None,None,None,None,None,None,None,None,None,None,None,None,None,,001,2022_aug_16_1102,test6,2021.2.3,60.064273577875646,
17,I felt relaxed,1,nBack1Cond.xlsx,7,-0.2,-0.2,space,1,38,,,,,0,0,0,16,0,0,0,0,0,37,37,37,,,,,,,,,,,,,,,,,,,,,,,,,,,,,,,,,,,,,,,,,,,,,,,,,,,,,,,,,,,,,None,None,None,None,None,None,None,None,None,None,None,None,None,None,None,None,None,None,None,None,None,None,None,,001,2022_aug_16_1102,test6,2021.2.3,60.064273577875646,
17,I felt relaxed,1,nBack1Cond.xlsx,7,-0.2,-0.2,space,1,39,,,,,0,0,0,16,0,0,0,0,0,38,38,38,,,,,,,,,,,,,,,,,,,,,,,,,,,,,,,,,,,,,,,,,,,,,,,,,,,,,,,,,,,,,None,None,None,None,None,None,None,None,None,None,None,None,None,None,None,None,None,None,None,None,None,None,None,,001,2022_aug_16_1102,test6,2021.2.3,60.064273577875646,
17,I felt relaxed,1,nBack1Cond.xlsx,6,0.2,0,None,1,40,,,,,0,0,0,16,0,0,0,0,0,39,39,39,,,,,,,,,,,,,,,,,,,,,,,,,,,,,,,,,,,,,,,,,,,,,,,,,,,,,,,,,,,,,None,None,None,None,None,None,None,None,None,None,None,None,None,None,None,None,None,None,None,None,None,None,None,,001,2022_aug_16_1102,test6,2021.2.3,60.064273577875646,
17,I felt relaxed,1,nBack1Cond.xlsx,6,0.2,0,space,1,41,,,,,0,0,0,16,0,0,0,0,0,40,40,40,,,,,,,,,,,,,,,,,,,,,,,,,,,,,,,,,,,,,,,,,,,,,,,,,,,,,,,,,,,,,None,None,None,None,None,None,None,None,None,None,None,None,None,None,None,None,None,None,None,None,None,None,None,,001,2022_aug_16_1102,test6,2021.2.3,60.064273577875646,
17,I felt relaxed,1,nBack1Cond.xlsx,1,-0.2,0.2,None,1,42,,,,,0,0,0,16,0,0,0,0,0,41,41,41,,,,,,,,,,,,,,,,,,,,,,,,,,,,,,,,,,,,,,,,,,,,,,,,,,,,,,,,,,,,,None,None,None,None,None,None,None,None,None,None,None,None,None,None,None,None,None,None,None,None,None,None,None,,001,2022_aug_16_1102,test6,2021.2.3,60.064273577875646,
17,I felt relaxed,1,nBack1Cond.xlsx,5,0,0,None,1,43,,,,,0,0,0,16,0,0,0,0,0,42,42,42,,,,,,,,,,,,,,,,,,,,,,,,,,,,,,,,,,,,,,,,,,,,,,,,,,,,,,,,,,,,,None,None,None,None,None,None,None,None,None,None,None,None,None,None,None,None,None,None,None,None,None,None,None,,001,2022_aug_16_1102,test6,2021.2.3,60.064273577875646,
17,I felt relaxed,1,nBack1Cond.xlsx,3,0.2,0.2,None,1,44,,,,,0,0,0,16,0,0,0,0,0,43,43,43,,,,,,,,,,,,,,,,,,,,,,,,,,,,,,,,,,,,,,,,,,,,,,,,,,,,,,,,,,,,,None,None,None,None,None,None,None,None,None,None,None,None,None,None,None,None,None,None,None,None,None,None,None,,001,2022_aug_16_1102,test6,2021.2.3,60.064273577875646,
17,I felt relaxed,1,nBack1Cond.xlsx,1,-0.2,0.2,None,1,45,,,,,0,0,0,16,0,0,0,0,0,44,44,44,,,,,,,,,,,,,,,,,,,,,,,,,,,,,,,,,,,,,,,,,,,,,,,,,,,,,,,,,,,,,None,None,None,None,None,None,None,None,None,None,None,None,None,None,None,None,None,None,None,None,None,None,None,,001,2022_aug_16_1102,test6,2021.2.3,60.064273577875646,
17,I felt relaxed,1,nBack1Cond.xlsx,7,-0.2,-0.2,None,1,46,,,,,0,0,0,16,0,0,0,0,0,45,45,45,,,,,,,,,,,,,,,,,,,,,,,,,,,,,,,,,,,,,,,,,,,,,,,,,,,,,,,,,,,,,None,None,None,None,None,None,None,None,None,None,None,None,None,None,None,None,None,None,None,None,None,None,None,,001,2022_aug_16_1102,test6,2021.2.3,60.064273577875646,
17,I felt relaxed,1,nBack1Cond.xlsx,3,0.2,0.2,None,1,47,,,,,0,0,0,16,0,0,0,0,0,46,46,46,,,,,,,,,,,,,,,,,,,,,,,,,,,,,,,,,,,,,,,,,,,,,,,,,,,,,,,,,,,,,None,None,None,None,None,None,None,None,None,None,None,None,None,None,None,None,None,None,None,None,None,None,None,,001,2022_aug_16_1102,test6,2021.2.3,60.064273577875646,
17,I felt relaxed,1,nBack1Cond.xlsx,3,0.2,0.2,space,1,48,,,,,0,0,0,16,0,0,0,0,0,47,47,47,,,,,,,,,,,,,,,,,,,,,,,,,,,,,,,,,,,,,,,,,,,,,,,,,,,,,,,,,,,,,None,None,None,None,None,None,None,None,None,None,None,None,None,None,None,None,None,None,None,None,None,None,None,,001,2022_aug_16_1102,test6,2021.2.3,60.064273577875646,
17,I felt relaxed,1,nBack1Cond.xlsx,9,0.2,-0.2,None,1,49,,,,,0,0,0,16,0,0,0,0,0,48,48,48,,,,,,,,,,,,,,,,,,,,,,,,,,,,,,,,,,,,,,,,,,,,,,,,,,,,,,,,,,,,,None,None,None,None,None,None,None,None,None,None,None,None,None,None,None,None,None,None,None,None,None,None,None,,001,2022_aug_16_1102,test6,2021.2.3,60.064273577875646,
17,I felt relaxed,1,nBack1Cond.xlsx,7,-0.2,-0.2,None,1,50,,,,,0,0,0,16,0,0,0,0,0,49,49,49,,,,,,,,,,,,,,,,,,,,,,,,,,,,,,,,,,,,,,,,,,,,,,,,,,,,,,,,,,,,,None,None,None,None,None,None,None,None,None,None,None,None,None,None,None,None,None,None,None,None,None,None,None,,001,2022_aug_16_1102,test6,2021.2.3,60.064273577875646,
17,I felt relaxed,1,nBack1Cond.xlsx,5,0,0,None,1,51,,,,,0,0,0,16,0,0,0,0,0,50,50,50,,,,,,,,,,,,,,,,,,,,,,,,,,,,,,,,,,,,,,,,,,,,,,,,,,,,,,,,,,,,,None,None,None,None,None,None,None,None,None,None,None,None,None,None,None,None,None,None,None,None,None,None,None,,001,2022_aug_16_1102,test6,2021.2.3,60.064273577875646,
17,I felt relaxed,1,nBack1Cond.xlsx,8,0,-0.2,None,1,52,,,,,0,0,0,16,0,0,0,0,0,51,51,51,,,,,,,,,,,,,,,,,,,,,,,,,,,,,,,,,,,,,,,,,,,,,,,,,,,,,,,,,,,,,None,None,None,None,None,None,None,None,None,None,None,None,None,None,None,None,None,None,None,None,None,None,None,,001,2022_aug_16_1102,test6,2021.2.3,60.064273577875646,
17,I felt relaxed,1,nBack1Cond.xlsx,8,0,-0.2,space,1,53,,,,,0,0,0,16,0,0,0,0,0,52,52,52,,,,,,,,,,,,,,,,,,,,,,,,,,,,,,,,,,,,,,,,,,,,,,,,,,,,,,,,,,,,,None,None,None,None,None,None,None,None,None,None,None,None,None,None,None,None,None,None,None,None,None,None,None,,001,2022_aug_16_1102,test6,2021.2.3,60.064273577875646,
17,I felt relaxed,1,nBack1Cond.xlsx,7,-0.2,-0.2,None,1,54,,,,,0,0,0,16,0,0,0,0,0,53,53,53,,,,,,,,,,,,,,,,,,,,,,,,,,,,,,,,,,,,,,,,,,,,,,,,,,,,,,,,,,,,,None,None,None,None,None,None,None,None,None,None,None,None,None,None,None,None,None,None,None,None,None,None,None,,001,2022_aug_16_1102,test6,2021.2.3,60.064273577875646,
17,I felt relaxed,1,nBack1Cond.xlsx,4,-0.2,0,None,1,55,,,,,0,0,0,16,0,0,0,0,0,54,54,54,,,,,,,,,,,,,,,,,,,,,,,,,,,,,,,,,,,,,,,,,,,,,,,,,,,,,,,,,,,,,None,None,None,None,None,None,None,None,None,None,None,None,None,None,None,None,None,None,None,None,None,None,None,,001,2022_aug_16_1102,test6,2021.2.3,60.064273577875646,
17,I felt relaxed,1,nBack1Cond.xlsx,5,0,0,None,1,56,,,,,0,0,0,16,0,0,0,0,0,55,55,55,,,,,,,,,,,,,,,,,,,,,,,,,,,,,,,,,,,,,,,,,,,,,,,,,,,,,,,,,,,,,None,None,None,None,None,None,None,None,None,None,None,None,None,None,None,None,None,None,None,None,None,None,None,,001,2022_aug_16_1102,test6,2021.2.3,60.064273577875646,
17,I felt relaxed,1,nBack1Cond.xlsx,5,0,0,space,1,57,,,,,0,0,0,16,0,0,0,0,0,56,56,56,,,,,,,,,,,,,,,,,,,,,,,,,,,,,,,,,,,,,,,,,,,,,,,,,,,,,,,,,,,,,None,None,None,None,None,None,None,None,None,None,None,None,None,None,None,None,None,None,None,None,None,None,None,,001,2022_aug_16_1102,test6,2021.2.3,60.064273577875646,
17,I felt relaxed,1,nBack1Cond.xlsx,2,0,0.2,None,1,58,,,,,0,0,0,16,0,0,0,0,0,57,57,57,,,,,,,,,,,,,,,,,,,,,,,,,,,,,,,,,,,,,,,,,,,,,,,,,,,,,,,,,,,,,None,None,None,None,None,None,None,None,None,None,None,None,None,None,None,None,None,None,None,None,None,None,None,,001,2022_aug_16_1102,test6,2021.2.3,60.064273577875646,
17,I felt relaxed,1,nBack1Cond.xlsx,2,0,0.2,space,1,59,,,,,0,0,0,16,0,0,0,0,0,58,58,58,,,,,,,,,,,,,,,,,,,,,,,,,,,,,,,,,,,,,,,,,,,,,,,,,,,,,,,,,,,,,None,None,None,None,None,None,None,None,None,None,None,None,None,None,None,None,None,None,None,None,None,None,None,,001,2022_aug_16_1102,test6,2021.2.3,60.064273577875646,
17,I felt relaxed,1,nBack1Cond.xlsx,6,0.2,0,None,1,60,,,,,0,0,0,16,0,0,0,0,0,59,59,59,,,,,,,,,,,,,,,,,,,,,,,,,,,,,,,,,,,,,,,,,,,,,,,,,,,,,,,,,,,,,None,None,None,None,None,None,None,None,None,None,None,None,None,None,None,None,None,None,None,None,None,None,None,,001,2022_aug_16_1102,test6,2021.2.3,60.064273577875646,
17,I felt relaxed,1,nBack1Cond.xlsx,None,None,None,None,None,None,,,,,0,0,0,16,0,0,0,0,0,60,60,60,,,,,,,,,,,,,,,,,,,,,,,,,,,,,,,,,,,,,,,,,,,,,,,,,,,,,,,,,,,,,None,None,None,None,None,None,None,None,None,None,None,None,None,None,None,None,None,None,None,None,None,None,None,,001,2022_aug_16_1102,test6,2021.2.3,60.064273577875646,
17,I felt relaxed,1,nBack1Cond.xlsx,None,None,None,None,None,None,,,,,0,0,0,16,0,0,0,0,0,61,61,61,,,,,,,,,,,,,,,,,,,,,,,,,,,,,,,,,,,,,,,,,,,,,,,,,,,,,,,,,,,,,None,None,None,None,None,None,None,None,None,None,None,None,None,None,None,None,None,None,None,None,None,None,None,,001,2022_aug_16_1102,test6,2021.2.3,60.064273577875646,
17,I felt relaxed,1,nBack1Cond.xlsx,None,None,None,None,None,None,,,,,0,0,0,16,0,0,0,0,0,62,62,62,,,,,,,,,,,,,,,,,,,,,,,,,,,,,,,,,,,,,,,,,,,,,,,,,,,,,,,,,,,,,None,None,None,None,None,None,None,None,None,None,None,None,None,None,None,None,None,None,None,None,None,None,None,,001,2022_aug_16_1102,test6,2021.2.3,60.064273577875646,
17,I felt relaxed,1,nBack1Cond.xlsx,None,None,None,None,None,None,,,,,0,0,0,16,0,0,0,0,0,63,63,63,,,,,,,,,,,,,,,,,,,,,,,,,,,,,,,,,,,,,,,,,,,,,,,,,,,,,,,,,,,,,None,None,None,None,None,None,None,None,None,None,None,None,None,None,None,None,None,None,None,None,None,None,None,,001,2022_aug_16_1102,test6,2021.2.3,60.064273577875646,
17,I felt relaxed,1,nBack1Cond.xlsx,None,None,None,None,None,None,,,,,0,0,0,16,0,0,0,0,0,64,64,64,,,,,,,,,,,,,,,,,,,,,,,,,,,,,,,,,,,,,,,,,,,,,,,,,,,,,,,,,,,,,None,None,None,None,None,None,None,None,None,None,None,None,None,None,None,None,None,None,None,None,None,None,None,,001,2022_aug_16_1102,test6,2021.2.3,60.064273577875646,
17,I felt relaxed,1,nBack1Cond.xlsx,None,None,None,None,None,None,,,,,0,0,0,16,0,0,0,0,0,65,65,65,,,,,,,,,,,,,,,,,,,,,,,,,,,,,,,,,,,,,,,,,,,,,,,,,,,,,,,,,,,,,None,None,None,None,None,None,None,None,None,None,None,None,None,None,None,None,None,None,None,None,None,None,None,,001,2022_aug_16_1102,test6,2021.2.3,60.064273577875646,
17,I felt relaxed,1,nBack1Cond.xlsx,None,None,None,None,None,None,,,,,0,0,0,16,0,0,0,0,0,66,66,66,,,,,,,,,,,,,,,,,,,,,,,,,,,,,,,,,,,,,,,,,,,,,,,,,,,,,,,,,,,,,None,None,None,None,None,None,None,None,None,None,None,None,None,None,None,None,None,None,None,None,None,None,None,,001,2022_aug_16_1102,test6,2021.2.3,60.064273577875646,
17,I felt relaxed,1,nBack1Cond.xlsx,None,None,None,None,None,None,,,,,0,0,0,16,0,0,0,0,0,67,67,67,,,,,,,,,,,,,,,,,,,,,,,,,,,,,,,,,,,,,,,,,,,,,,,,,,,,,,,,,,,,,None,None,None,None,None,None,None,None,None,None,None,None,None,None,None,None,None,None,None,None,None,None,None,,001,2022_aug_16_1102,test6,2021.2.3,60.064273577875646,
17,I felt relaxed,1,nBack1Cond.xlsx,None,None,None,None,None,None,,,,,0,0,0,16,0,0,0,0,0,68,68,68,,,,,,,,,,,,,,,,,,,,,,,,,,,,,,,,,,,,,,,,,,,,,,,,,,,,,,,,,,,,,None,None,None,None,None,None,None,None,None,None,None,None,None,None,None,None,None,None,None,None,None,None,None,,001,2022_aug_16_1102,test6,2021.2.3,60.064273577875646,
17,I felt relaxed,1,nBack1Cond.xlsx,None,None,None,None,None,None,,,,,0,0,0,16,0,0,0,0,0,69,69,69,,,,,,,,,,,,,,,,,,,,,,,,,,,,,,,,,,,,,,,,,,,,,,,,,,,,,,,,,,,,,None,None,None,None,None,None,None,None,None,None,None,None,None,None,None,None,None,None,None,None,None,None,None,,001,2022_aug_16_1102,test6,2021.2.3,60.064273577875646,
17,I felt relaxed,1,nBack1Cond.xlsx,None,None,None,None,None,None,,,,,0,0,0,16,0,0,0,0,0,70,70,70,,,,,,,,,,,,,,,,,,,,,,,,,,,,,,,,,,,,,,,,,,,,,,,,,,,,,,,,,,,,,None,None,None,None,None,None,None,None,None,None,None,None,None,None,None,None,None,None,None,None,None,None,None,,001,2022_aug_16_1102,test6,2021.2.3,60.064273577875646,
17,I felt relaxed,1,nBack1Cond.xlsx,None,None,None,None,None,None,,,,,0,0,0,16,0,0,0,0,0,71,71,71,,,,,,,,,,,,,,,,,,,,,,,,,,,,,,,,,,,,,,,,,,,,,,,,,,,,,,,,,,,,,None,None,None,None,None,None,None,None,None,None,None,None,None,None,None,None,None,None,None,None,None,None,None,,001,2022_aug_16_1102,test6,2021.2.3,60.064273577875646,
17,I felt relaxed,1,nBack1Cond.xlsx,None,None,None,None,None,None,,,,,0,0,0,16,0,0,0,0,0,72,72,72,,,,,,,,,,,,,,,,,,,,,,,,,,,,,,,,,,,,,,,,,,,,,,,,,,,,,,,,,,,,,None,None,None,None,None,None,None,None,None,None,None,None,None,None,None,None,None,None,None,None,None,None,None,,001,2022_aug_16_1102,test6,2021.2.3,60.064273577875646,
17,I felt relaxed,1,nBack1Cond.xlsx,None,None,None,None,None,None,,,,,0,0,0,16,0,0,0,0,0,73,73,73,,,,,,,,,,,,,,,,,,,,,,,,,,,,,,,,,,,,,,,,,,,,,,,,,,,,,,,,,,,,,None,None,None,None,None,None,None,None,None,None,None,None,None,None,None,None,None,None,None,None,None,None,None,,001,2022_aug_16_1102,test6,2021.2.3,60.064273577875646,
17,I felt relaxed,1,nBack1Cond.xlsx,None,None,None,None,None,None,,,,,0,0,0,16,0,0,0,0,0,74,74,74,,,,,,,,,,,,,,,,,,,,,,,,,,,,,,,,,,,,,,,,,,,,,,,,,,,,,,,,,,,,,None,None,None,None,None,None,None,None,None,None,None,None,None,None,None,None,None,None,None,None,None,None,None,,001,2022_aug_16_1102,test6,2021.2.3,60.064273577875646,
17,I felt relaxed,1,nBack1Cond.xlsx,None,None,None,None,None,None,,,,,0,0,0,16,0,0,0,0,0,75,75,75,,,,,,,,,,,,,,,,,,,,,,,,,,,,,,,,,,,,,,,,,,,,,,,,,,,,,,,,,,,,,None,None,None,None,None,None,None,None,None,None,None,None,None,None,None,None,None,None,None,None,None,None,None,,001,2022_aug_16_1102,test6,2021.2.3,60.064273577875646,
17,I felt relaxed,1,nBack1Cond.xlsx,None,None,None,None,None,None,,,,,0,0,0,16,0,0,0,0,0,76,76,76,,,,,,,,,,,,,,,,,,,,,,,,,,,,,,,,,,,,,,,,,,,,,,,,,,,,,,,,,,,,,None,None,None,None,None,None,None,None,None,None,None,None,None,None,None,None,None,None,None,None,None,None,None,,001,2022_aug_16_1102,test6,2021.2.3,60.064273577875646,
17,I felt relaxed,1,nBack1Cond.xlsx,None,None,None,None,None,None,,,,,0,0,0,16,0,0,0,0,0,77,77,77,,,,,,,,,,,,,,,,,,,,,,,,,,,,,,,,,,,,,,,,,,,,,,,,,,,,,,,,,,,,,None,None,None,None,None,None,None,None,None,None,None,None,None,None,None,None,None,None,None,None,None,None,None,,001,2022_aug_16_1102,test6,2021.2.3,60.064273577875646,
17,I felt relaxed,1,nBack1Cond.xlsx,None,None,None,None,None,None,,,,,0,0,0,16,0,0,0,0,0,78,78,78,,,,,,,,,,,,,,,,,,,,,,,,,,,,,,,,,,,,,,,,,,,,,,,,,,,,,,,,,,,,,None,None,None,None,None,None,None,None,None,None,None,None,None,None,None,None,None,None,None,None,None,None,None,,001,2022_aug_16_1102,test6,2021.2.3,60.064273577875646,
17,I felt relaxed,1,nBack1Cond.xlsx,None,None,None,None,None,None,,,,,0,0,0,16,0,0,0,0,0,79,79,79,,,,,,,,,,,,,,,,,,,,,,,,,,,,,,,,,,,,,,,,,,,,,,,,,,,,,,,,,,,,,None,None,None,None,None,None,None,None,None,None,None,None,None,None,None,None,None,None,None,None,None,None,None,,001,2022_aug_16_1102,test6,2021.2.3,60.064273577875646,
17,I felt relaxed,1,nBack1Cond.xlsx,None,None,None,None,None,None,,,,,0,0,0,16,0,0,0,0,0,80,80,80,,,,,,,,,,,,,,,,,,,,,,,,,,,,,,,,,,,,,,,,,,,,,,,,,,,,,,,,,,,,,None,None,None,None,None,None,None,None,None,None,None,None,None,None,None,None,None,None,None,None,None,None,None,,001,2022_aug_16_1102,test6,2021.2.3,60.064273577875646,
17,I felt relaxed,1,nBack1Cond.xlsx,None,None,None,None,None,None,,,,,0,0,0,16,0,0,0,0,0,81,81,81,,,,,,,,,,,,,,,,,,,,,,,,,,,,,,,,,,,,,,,,,,,,,,,,,,,,,,,,,,,,,None,None,None,None,None,None,None,None,None,None,None,None,None,None,None,None,None,None,None,None,None,None,None,,001,2022_aug_16_1102,test6,2021.2.3,60.064273577875646,
17,I felt relaxed,1,nBack1Cond.xlsx,None,None,None,None,None,None,,,,,0,0,0,16,0,0,0,0,0,82,82,82,,,,,,,,,,,,,,,,,,,,,,,,,,,,,,,,,,,,,,,,,,,,,,,,,,,,,,,,,,,,,None,None,None,None,None,None,None,None,None,None,None,None,None,None,None,None,None,None,None,None,None,None,None,,001,2022_aug_16_1102,test6,2021.2.3,60.064273577875646,
17,I felt relaxed,1,nBack1Cond.xlsx,None,None,None,None,None,None,,,,,0,0,0,16,0,0,0,0,0,83,83,83,,,,,,,,,,,,,,,,,,,,,,,,,,,,,,,,,,,,,,,,,,,,,,,,,,,,,,,,,,,,,None,None,None,None,None,None,None,None,None,None,None,None,None,None,None,None,None,None,None,None,None,None,None,,001,2022_aug_16_1102,test6,2021.2.3,60.064273577875646,
17,I felt relaxed,1,nBack1Cond.xlsx,None,None,None,None,None,None,,,,,0,0,0,16,0,0,0,0,0,84,84,84,,,,,,,,,,,,,,,,,,,,,,,,,,,,,,,,,,,,,,,,,,,,,,,,,,,,,,,,,,,,,None,None,None,None,None,None,None,None,None,None,None,None,None,None,None,None,None,None,None,None,None,None,None,,001,2022_aug_16_1102,test6,2021.2.3,60.064273577875646,
17,I felt relaxed,1,nBack1Cond.xlsx,None,None,None,None,None,None,,,,,0,0,0,16,0,0,0,0,0,85,85,85,,,,,,,,,,,,,,,,,,,,,,,,,,,,,,,,,,,,,,,,,,,,,,,,,,,,,,,,,,,,,None,None,None,None,None,None,None,None,None,None,None,None,None,None,None,None,None,None,None,None,None,None,None,,001,2022_aug_16_1102,test6,2021.2.3,60.064273577875646,
17,I felt relaxed,1,nBack1Cond.xlsx,None,None,None,None,None,None,,,,,0,0,0,16,0,0,0,0,0,86,86,86,,,,,,,,,,,,,,,,,,,,,,,,,,,,,,,,,,,,,,,,,,,,,,,,,,,,,,,,,,,,,None,None,None,None,None,None,None,None,None,None,None,None,None,None,None,None,None,None,None,None,None,None,None,,001,2022_aug_16_1102,test6,2021.2.3,60.064273577875646,
17,I felt relaxed,1,nBack1Cond.xlsx,None,None,None,None,None,None,,,,,0,0,0,16,0,0,0,0,0,87,87,87,,,,,,,,,,,,,,,,,,,,,,,,,,,,,,,,,,,,,,,,,,,,,,,,,,,,,,,,,,,,,None,None,None,None,None,None,None,None,None,None,None,None,None,None,None,None,None,None,None,None,None,None,None,,001,2022_aug_16_1102,test6,2021.2.3,60.064273577875646,
17,I felt relaxed,1,nBack1Cond.xlsx,None,None,None,None,None,None,,,,,0,0,0,16,0,0,0,0,0,88,88,88,,,,,,,,,,,,,,,,,,,,,,,,,,,,,,,,,,,,,,,,,,,,,,,,,,,,,,,,,,,,,None,None,None,None,None,None,None,None,None,None,None,None,None,None,None,None,None,None,None,None,None,None,None,,001,2022_aug_16_1102,test6,2021.2.3,60.064273577875646,
17,I felt relaxed,1,nBack1Cond.xlsx,None,None,None,None,None,None,,,,,0,0,0,16,0,0,0,0,0,89,89,89,,,,,,,,,,,,,,,,,,,,,,,,,,,,,,,,,,,,,,,,,,,,,,,,,,,,,,,,,,,,,None,None,None,None,None,None,None,None,None,None,None,None,None,None,None,None,None,None,None,None,None,None,None,,001,2022_aug_16_1102,test6,2021.2.3,60.064273577875646,
17,I felt relaxed,1,nBack1Cond.xlsx,None,None,None,None,None,None,,,,,0,0,0,16,0,0,0,0,0,90,90,90,,,,,,,,,,,,,,,,,,,,,,,,,,,,,,,,,,,,,,,,,,,,,,,,,,,,,,,,,,,,,None,None,None,None,None,None,None,None,None,None,None,None,None,None,None,None,None,None,None,None,None,None,None,,001,2022_aug_16_1102,test6,2021.2.3,60.064273577875646,
17,I felt relaxed,1,nBack1Cond.xlsx,None,None,None,None,None,None,,,,,0,0,0,16,0,0,0,0,0,91,91,91,,,,,,,,,,,,,,,,,,,,,,,,,,,,,,,,,,,,,,,,,,,,,,,,,,,,,,,,,,,,,None,None,None,None,None,None,None,None,None,None,None,None,None,None,None,None,None,None,None,None,None,None,None,,001,2022_aug_16_1102,test6,2021.2.3,60.064273577875646,
17,I felt relaxed,1,nBack1Cond.xlsx,None,None,None,None,None,None,,,,,0,0,0,16,0,0,0,0,0,92,92,92,,,,,,,,,,,,,,,,,,,,,,,,,,,,,,,,,,,,,,,,,,,,,,,,,,,,,,,,,,,,,None,None,None,None,None,None,None,None,None,None,None,None,None,None,None,None,None,None,None,None,None,None,None,,001,2022_aug_16_1102,test6,2021.2.3,60.064273577875646,
17,I felt relaxed,1,nBack1Cond.xlsx,None,None,None,None,None,None,,,,,0,0,0,16,0,0,0,0,0,93,93,93,,,,,,,,,,,,,,,,,,,,,,,,,,,,,,,,,,,,,,,,,,,,,,,,,,,,,,,,,,,,,None,None,None,None,None,None,None,None,None,None,None,None,None,None,None,None,None,None,None,None,None,None,None,,001,2022_aug_16_1102,test6,2021.2.3,60.064273577875646,
17,I felt relaxed,1,nBack1Cond.xlsx,None,None,None,None,None,None,,,,,0,0,0,16,0,0,0,0,0,94,94,94,,,,,,,,,,,,,,,,,,,,,,,,,,,,,,,,,,,,,,,,,,,,,,,,,,,,,,,,,,,,,None,None,None,None,None,None,None,None,None,None,None,None,None,None,None,None,None,None,None,None,None,None,None,,001,2022_aug_16_1102,test6,2021.2.3,60.064273577875646,
17,I felt relaxed,1,nBack1Cond.xlsx,None,None,None,None,None,None,,,,,0,0,0,16,0,0,0,0,0,95,95,95,,,,,,,,,,,,,,,,,,,,,,,,,,,,,,,,,,,,,,,,,,,,,,,,,,,,,,,,,,,,,None,None,None,None,None,None,None,None,None,None,None,None,None,None,None,None,None,None,None,None,None,None,None,,001,2022_aug_16_1102,test6,2021.2.3,60.064273577875646,
17,I felt relaxed,1,nBack1Cond.xlsx,None,None,None,None,None,None,,,,,0,0,0,16,0,0,0,0,0,96,96,96,,,,,,,,,,,,,,,,,,,,,,,,,,,,,,,,,,,,,,,,,,,,,,,,,,,,,,,,,,,,,None,None,None,None,None,None,None,None,None,None,None,None,None,None,None,None,None,None,None,None,None,None,None,,001,2022_aug_16_1102,test6,2021.2.3,60.064273577875646,
17,I felt relaxed,1,nBack1Cond.xlsx,None,None,None,None,None,None,,,,,0,0,0,16,0,0,0,0,0,97,97,97,,,,,,,,,,,,,,,,,,,,,,,,,,,,,,,,,,,,,,,,,,,,,,,,,,,,,,,,,,,,,None,None,None,None,None,None,None,None,None,None,None,None,None,None,None,None,None,None,None,None,None,None,None,,001,2022_aug_16_1102,test6,2021.2.3,60.064273577875646,
17,I felt relaxed,1,nBack1Cond.xlsx,None,None,None,None,None,None,,,,,0,0,0,16,0,0,0,0,0,98,98,98,,,,,,,,,,,,,,,,,,,,,,,,,,,,,,,,,,,,,,,,,,,,,,,,,,,,,,,,,,,,,None,None,None,None,None,None,None,None,None,None,None,None,None,None,None,None,None,None,None,None,None,None,None,,001,2022_aug_16_1102,test6,2021.2.3,60.064273577875646,
17,I felt relaxed,1,nBack1Cond.xlsx,None,None,None,None,None,None,,,,,0,0,0,16,0,0,0,0,0,99,99,99,,,,,,,,,,,,,,,,,,,,,,,,,,,,,,,,,,,,,,,,,,,,,,,,,,,,,,,,,,,,,None,None,None,None,None,None,None,None,None,None,None,None,None,None,None,None,None,None,None,None,None,None,None,,001,2022_aug_16_1102,test6,2021.2.3,60.064273577875646,
17,I felt relaxed,1,nBack1Cond.xlsx,None,None,None,None,None,None,,,,,0,0,0,16,0,0,0,0,0,100,100,100,,,,,,,,,,,,,,,,,,,,,,,,,,,,,,,,,,,,,,,,,,,,,,,,,,,,,,,,,,,,,None,None,None,None,None,None,None,None,None,None,None,None,None,None,None,None,None,None,None,None,None,None,None,,001,2022_aug_16_1102,test6,2021.2.3,60.064273577875646,
17,I felt relaxed,1,nBack1Cond.xlsx,None,None,None,None,None,None,,,,,0,0,0,16,0,0,0,0,0,101,101,101,,,,,,,,,,,,,,,,,,,,,,,,,,,,,,,,,,,,,,,,,,,,,,,,,,,,,,,,,,,,,None,None,None,None,None,None,None,None,None,None,None,None,None,None,None,None,None,None,None,None,None,None,None,,001,2022_aug_16_1102,test6,2021.2.3,60.064273577875646,
17,I felt relaxed,1,nBack1Cond.xlsx,None,None,None,None,None,None,,,,,0,0,0,16,0,0,0,0,0,102,102,102,,,,,,,,,,,,,,,,,,,,,,,,,,,,,,,,,,,,,,,,,,,,,,,,,,,,,,,,,,,,,None,None,None,None,None,None,None,None,None,None,None,None,None,None,None,None,None,None,None,None,None,None,None,,001,2022_aug_16_1102,test6,2021.2.3,60.064273577875646,
17,I felt relaxed,1,nBack1Cond.xlsx,None,None,None,None,None,None,,,,,0,0,0,16,0,0,0,0,0,103,103,103,,,,,,,,,,,,,,,,,,,,,,,,,,,,,,,,,,,,,,,,,,,,,,,,,,,,,,,,,,,,,None,None,None,None,None,None,None,None,None,None,None,None,None,None,None,None,None,None,None,None,None,None,None,,001,2022_aug_16_1102,test6,2021.2.3,60.064273577875646,
17,I felt relaxed,1,nBack1Cond.xlsx,None,None,None,None,None,None,,,,,0,0,0,16,0,0,0,0,0,104,104,104,,,,,,,,,,,,,,,,,,,,,,,,,,,,,,,,,,,,,,,,,,,,,,,,,,,,,,,,,,,,,None,None,None,None,None,None,None,None,None,None,None,None,None,None,None,None,None,None,None,None,None,None,None,,001,2022_aug_16_1102,test6,2021.2.3,60.064273577875646,
17,I felt relaxed,1,nBack1Cond.xlsx,None,None,None,None,None,None,,,,,0,0,0,16,0,0,0,0,0,105,105,105,,,,,,,,,,,,,,,,,,,,,,,,,,,,,,,,,,,,,,,,,,,,,,,,,,,,,,,,,,,,,None,None,None,None,None,None,None,None,None,None,None,None,None,None,None,None,None,None,None,None,None,None,None,,001,2022_aug_16_1102,test6,2021.2.3,60.064273577875646,
17,I felt relaxed,1,nBack1Cond.xlsx,None,None,None,None,None,None,,,,,0,0,0,16,0,0,0,0,0,106,106,106,,,,,,,,,,,,,,,,,,,,,,,,,,,,,,,,,,,,,,,,,,,,,,,,,,,,,,,,,,,,,None,None,None,None,None,None,None,None,None,None,None,None,None,None,None,None,None,None,None,None,None,None,None,,001,2022_aug_16_1102,test6,2021.2.3,60.064273577875646,
17,I felt relaxed,1,nBack1Cond.xlsx,None,None,None,None,None,None,,,,,0,0,0,16,0,0,0,0,0,107,107,107,,,,,,,,,,,,,,,,,,,,,,,,,,,,,,,,,,,,,,,,,,,,,,,,,,,,,,,,,,,,,None,None,None,None,None,None,None,None,None,None,None,None,None,None,None,None,None,None,None,None,None,None,None,,001,2022_aug_16_1102,test6,2021.2.3,60.064273577875646,
17,I felt relaxed,1,nBack1Cond.xlsx,None,None,None,None,None,None,,,,,0,0,0,16,0,0,0,0,0,108,108,108,,,,,,,,,,,,,,,,,,,,,,,,,,,,,,,,,,,,,,,,,,,,,,,,,,,,,,,,,,,,,None,None,None,None,None,None,None,None,None,None,None,None,None,None,None,None,None,None,None,None,None,None,None,,001,2022_aug_16_1102,test6,2021.2.3,60.064273577875646,
17,I felt relaxed,1,nBack1Cond.xlsx,None,None,None,None,None,None,,,,,0,0,0,16,0,0,0,0,0,109,109,109,,,,,,,,,,,,,,,,,,,,,,,,,,,,,,,,,,,,,,,,,,,,,,,,,,,,,,,,,,,,,None,None,None,None,None,None,None,None,None,None,None,None,None,None,None,None,None,None,None,None,None,None,None,,001,2022_aug_16_1102,test6,2021.2.3,60.064273577875646,
17,I felt relaxed,1,nBack1Cond.xlsx,None,None,None,None,None,None,,,,,0,0,0,16,0,0,0,0,0,110,110,110,,,,,,,,,,,,,,,,,,,,,,,,,,,,,,,,,,,,,,,,,,,,,,,,,,,,,,,,,,,,,None,None,None,None,None,None,None,None,None,None,None,None,None,None,None,None,None,None,None,None,None,None,None,,001,2022_aug_16_1102,test6,2021.2.3,60.064273577875646,
17,I felt relaxed,1,nBack1Cond.xlsx,None,None,None,None,None,None,,,,,0,0,0,16,0,0,0,0,0,111,111,111,,,,,,,,,,,,,,,,,,,,,,,,,,,,,,,,,,,,,,,,,,,,,,,,,,,,,,,,,,,,,None,None,None,None,None,None,None,None,None,None,None,None,None,None,None,None,None,None,None,None,None,None,None,,001,2022_aug_16_1102,test6,2021.2.3,60.064273577875646,
17,I felt relaxed,1,nBack1Cond.xlsx,None,None,None,None,None,None,,,,,0,0,0,16,0,0,0,0,0,112,112,112,,,,,,,,,,,,,,,,,,,,,,,,,,,,,,,,,,,,,,,,,,,,,,,,,,,,,,,,,,,,,None,None,None,None,None,None,None,None,None,None,None,None,None,None,None,None,None,None,None,None,None,None,None,,001,2022_aug_16_1102,test6,2021.2.3,60.064273577875646,
17,I felt relaxed,1,nBack1Cond.xlsx,None,None,None,None,None,None,,,,,0,0,0,16,0,0,0,0,0,113,113,113,,,,,,,,,,,,,,,,,,,,,,,,,,,,,,,,,,,,,,,,,,,,,,,,,,,,,,,,,,,,,None,None,None,None,None,None,None,None,None,None,None,None,None,None,None,None,None,None,None,None,None,None,None,,001,2022_aug_16_1102,test6,2021.2.3,60.064273577875646,
17,I felt relaxed,1,nBack1Cond.xlsx,None,None,None,None,None,None,,,,,0,0,0,16,0,0,0,0,0,114,114,114,,,,,,,,,,,,,,,,,,,,,,,,,,,,,,,,,,,,,,,,,,,,,,,,,,,,,,,,,,,,,None,None,None,None,None,None,None,None,None,None,None,None,None,None,None,None,None,None,None,None,None,None,None,,001,2022_aug_16_1102,test6,2021.2.3,60.064273577875646,
17,I felt relaxed,1,nBack1Cond.xlsx,None,None,None,None,None,None,,,,,0,0,0,16,0,0,0,0,0,115,115,115,,,,,,,,,,,,,,,,,,,,,,,,,,,,,,,,,,,,,,,,,,,,,,,,,,,,,,,,,,,,,None,None,None,None,None,None,None,None,None,None,None,None,None,None,None,None,None,None,None,None,None,None,None,,001,2022_aug_16_1102,test6,2021.2.3,60.064273577875646,
17,I felt relaxed,1,nBack1Cond.xlsx,None,None,None,None,None,None,,,,,0,0,0,16,0,0,0,0,0,116,116,116,,,,,,,,,,,,,,,,,,,,,,,,,,,,,,,,,,,,,,,,,,,,,,,,,,,,,,,,,,,,,None,None,None,None,None,None,None,None,None,None,None,None,None,None,None,None,None,None,None,None,None,None,None,,001,2022_aug_16_1102,test6,2021.2.3,60.064273577875646,
17,I felt relaxed,1,nBack1Cond.xlsx,None,None,None,None,None,None,,,,,0,0,0,16,0,0,0,0,0,117,117,117,,,,,,,,,,,,,,,,,,,,,,,,,,,,,,,,,,,,,,,,,,,,,,,,,,,,,,,,,,,,,None,None,None,None,None,None,None,None,None,None,None,None,None,None,None,None,None,None,None,None,None,None,None,,001,2022_aug_16_1102,test6,2021.2.3,60.064273577875646,
17,I felt relaxed,1,nBack1Cond.xlsx,None,None,None,None,None,None,,,,,0,0,0,16,0,0,0,0,0,118,118,118,,,,,,,,,,,,,,,,,,,,,,,,,,,,,,,,,,,,,,,,,,,,,,,,,,,,,,,,,,,,,None,None,None,None,None,None,None,None,None,None,None,None,None,None,None,None,None,None,None,None,None,None,None,,001,2022_aug_16_1102,test6,2021.2.3,60.064273577875646,
17,I felt relaxed,1,nBack1Cond.xlsx,None,None,None,None,None,None,,,,,0,0,0,16,0,0,0,0,0,119,119,119,,,,,,,,,,,,,,,,,,,,,,,,,,,,,,,,,,,,,,,,,,,,,,,,,,,,,,,,,,,,,None,None,None,None,None,None,None,None,None,None,None,None,None,None,None,None,None,None,None,None,None,None,None,,001,2022_aug_16_1102,test6,2021.2.3,60.064273577875646,
17,I felt relaxed,1,nBack1Cond.xlsx,None,None,None,None,None,None,,,,,0,0,0,16,0,0,0,0,0,120,120,120,,,,,,,,,,,,,,,,,,,,,,,,,,,,,,,,,,,,,,,,,,,,,,,,,,,,,,,,,,,,,None,None,None,None,None,None,None,None,None,None,None,None,None,None,None,None,None,None,None,None,None,None,None,,001,2022_aug_16_1102,test6,2021.2.3,60.064273577875646,
17,I felt relaxed,1,nBack1Cond.xlsx,None,None,None,None,None,None,,,,,0,0,0,16,0,0,0,0,0,121,121,121,,,,,,,,,,,,,,,,,,,,,,,,,,,,,,,,,,,,,,,,,,,,,,,,,,,,,,,,,,,,,None,None,None,None,None,None,None,None,None,None,None,None,None,None,None,None,None,None,None,None,None,None,None,,001,2022_aug_16_1102,test6,2021.2.3,60.064273577875646,
17,I felt relaxed,1,nBack1Cond.xlsx,None,None,None,None,None,None,,,,,0,0,0,16,0,0,0,0,0,122,122,122,,,,,,,,,,,,,,,,,,,,,,,,,,,,,,,,,,,,,,,,,,,,,,,,,,,,,,,,,,,,,None,None,None,None,None,None,None,None,None,None,None,None,None,None,None,None,None,None,None,None,None,None,None,,001,2022_aug_16_1102,test6,2021.2.3,60.064273577875646,
17,I felt relaxed,1,nBack1Cond.xlsx,None,None,None,None,None,None,,,,,0,0,0,16,0,0,0,0,0,123,123,123,,,,,,,,,,,,,,,,,,,,,,,,,,,,,,,,,,,,,,,,,,,,,,,,,,,,,,,,,,,,,None,None,None,None,None,None,None,None,None,None,None,None,None,None,None,None,None,None,None,None,None,None,None,,001,2022_aug_16_1102,test6,2021.2.3,60.064273577875646,
17,I felt relaxed,1,nBack1Cond.xlsx,None,None,None,None,None,None,,,,,0,0,0,16,0,0,0,0,0,124,124,124,,,,,,,,,,,,,,,,,,,,,,,,,,,,,,,,,,,,,,,,,,,,,,,,,,,,,,,,,,,,,None,None,None,None,None,None,None,None,None,None,None,None,None,None,None,None,None,None,None,None,None,None,None,,001,2022_aug_16_1102,test6,2021.2.3,60.064273577875646,
17,I felt relaxed,1,nBack1Cond.xlsx,None,None,None,None,None,None,,,,,0,0,0,16,0,0,0,0,0,125,125,125,,,,,,,,,,,,,,,,,,,,,,,,,,,,,,,,,,,,,,,,,,,,,,,,,,,,,,,,,,,,,None,None,None,None,None,None,None,None,None,None,None,None,None,None,None,None,None,None,None,None,None,None,None,,001,2022_aug_16_1102,test6,2021.2.3,60.064273577875646,
17,I felt relaxed,1,nBack1Cond.xlsx,None,None,None,None,None,None,,,,,0,0,0,16,0,0,0,0,0,126,126,126,,,,,,,,,,,,,,,,,,,,,,,,,,,,,,,,,,,,,,,,,,,,,,,,,,,,,,,,,,,,,None,None,None,None,None,None,None,None,None,None,None,None,None,None,None,None,None,None,None,None,None,None,None,,001,2022_aug_16_1102,test6,2021.2.3,60.064273577875646,
17,I felt relaxed,1,nBack1Cond.xlsx,None,None,None,None,None,None,,,,,0,0,0,16,0,0,0,0,0,127,127,127,,,,,,,,,,,,,,,,,,,,,,,,,,,,,,,,,,,,,,,,,,,,,,,,,,,,,,,,,,,,,None,None,None,None,None,None,None,None,None,None,None,None,None,None,None,None,None,None,None,None,None,None,None,,001,2022_aug_16_1102,test6,2021.2.3,60.064273577875646,
17,I felt relaxed,1,nBack1Cond.xlsx,None,None,None,None,None,None,,,,,0,0,0,16,0,0,0,0,0,128,128,128,,,,,,,,,,,,,,,,,,,,,,,,,,,,,,,,,,,,,,,,,,,,,,,,,,,,,,,,,,,,,None,None,None,None,None,None,None,None,None,None,None,None,None,None,None,None,None,None,None,None,None,None,None,,001,2022_aug_16_1102,test6,2021.2.3,60.064273577875646,
17,I felt relaxed,1,nBack1Cond.xlsx,None,None,None,None,None,None,,,,,0,0,0,16,0,0,0,0,0,129,129,129,,,,,,,,,,,,,,,,,,,,,,,,,,,,,,,,,,,,,,,,,,,,,,,,,,,,,,,,,,,,,None,None,None,None,None,None,None,None,None,None,None,None,None,None,None,None,None,None,None,None,None,None,None,,001,2022_aug_16_1102,test6,2021.2.3,60.064273577875646,
17,I felt relaxed,1,nBack1Cond.xlsx,None,None,None,None,None,None,,,,,0,0,0,16,0,0,0,0,0,130,130,130,,,,,,,,,,,,,,,,,,,,,,,,,,,,,,,,,,,,,,,,,,,,,,,,,,,,,,,,,,,,,None,None,None,None,None,None,None,None,None,None,None,None,None,None,None,None,None,None,None,None,None,None,None,,001,2022_aug_16_1102,test6,2021.2.3,60.064273577875646,
17,I felt relaxed,1,nBack1Cond.xlsx,None,None,None,None,None,None,,,,,0,0,0,16,0,0,0,0,0,131,131,131,,,,,,,,,,,,,,,,,,,,,,,,,,,,,,,,,,,,,,,,,,,,,,,,,,,,,,,,,,,,,None,None,None,None,None,None,None,None,None,None,None,None,None,None,None,None,None,None,None,None,None,None,None,,001,2022_aug_16_1102,test6,2021.2.3,60.064273577875646,
17,I felt relaxed,1,nBack1Cond.xlsx,None,None,None,None,None,None,,,,,0,0,0,16,0,0,0,0,0,132,132,132,,,,,,,,,,,,,,,,,,,,,,,,,,,,,,,,,,,,,,,,,,,,,,,,,,,,,,,,,,,,,None,None,None,None,None,None,None,None,None,None,None,None,None,None,None,None,None,None,None,None,None,None,None,,001,2022_aug_16_1102,test6,2021.2.3,60.064273577875646,
17,I felt relaxed,1,nBack1Cond.xlsx,None,None,None,None,None,None,,,,,0,0,0,16,0,0,0,0,0,133,133,133,,,,,,,,,,,,,,,,,,,,,,,,,,,,,,,,,,,,,,,,,,,,,,,,,,,,,,,,,,,,,None,None,None,None,None,None,None,None,None,None,None,None,None,None,None,None,None,None,None,None,None,None,None,,001,2022_aug_16_1102,test6,2021.2.3,60.064273577875646,
17,I felt relaxed,1,nBack1Cond.xlsx,None,None,None,None,None,None,,,,,0,0,0,16,0,0,0,0,0,134,134,134,,,,,,,,,,,,,,,,,,,,,,,,,,,,,,,,,,,,,,,,,,,,,,,,,,,,,,,,,,,,,None,None,None,None,None,None,None,None,None,None,None,None,None,None,None,None,None,None,None,None,None,None,None,,001,2022_aug_16_1102,test6,2021.2.3,60.064273577875646,
17,I felt relaxed,1,nBack1Cond.xlsx,None,None,None,None,None,None,,,,,0,0,0,16,0,0,0,0,0,135,135,135,,,,,,,,,,,,,,,,,,,,,,,,,,,,,,,,,,,,,,,,,,,,,,,,,,,,,,,,,,,,,None,None,None,None,None,None,None,None,None,None,None,None,None,None,None,None,None,None,None,None,None,None,None,,001,2022_aug_16_1102,test6,2021.2.3,60.064273577875646,
17,I felt relaxed,1,nBack1Cond.xlsx,None,None,None,None,None,None,,,,,0,0,0,16,0,0,0,0,0,136,136,136,,,,,,,,,,,,,,,,,,,,,,,,,,,,,,,,,,,,,,,,,,,,,,,,,,,,,,,,,,,,,None,None,None,None,None,None,None,None,None,None,None,None,None,None,None,None,None,None,None,None,None,None,None,,001,2022_aug_16_1102,test6,2021.2.3,60.064273577875646,
17,I felt relaxed,1,nBack1Cond.xlsx,None,None,None,None,None,None,,,,,0,0,0,16,0,0,0,0,0,137,137,137,,,,,,,,,,,,,,,,,,,,,,,,,,,,,,,,,,,,,,,,,,,,,,,,,,,,,,,,,,,,,None,None,None,None,None,None,None,None,None,None,None,None,None,None,None,None,None,None,None,None,None,None,None,,001,2022_aug_16_1102,test6,2021.2.3,60.064273577875646,
17,I felt relaxed,1,nBack1Cond.xlsx,None,None,None,None,None,None,,,,,0,0,0,16,0,0,0,0,0,138,138,138,,,,,,,,,,,,,,,,,,,,,,,,,,,,,,,,,,,,,,,,,,,,,,,,,,,,,,,,,,,,,None,None,None,None,None,None,None,None,None,None,None,None,None,None,None,None,None,None,None,None,None,None,None,,001,2022_aug_16_1102,test6,2021.2.3,60.064273577875646,
17,I felt relaxed,1,nBack1Cond.xlsx,None,None,None,None,None,None,,,,,0,0,0,16,0,0,0,0,0,139,139,139,,,,,,,,,,,,,,,,,,,,,,,,,,,,,,,,,,,,,,,,,,,,,,,,,,,,,,,,,,,,,None,None,None,None,None,None,None,None,None,None,None,None,None,None,None,None,None,None,None,None,None,None,None,,001,2022_aug_16_1102,test6,2021.2.3,60.064273577875646,
17,I felt relaxed,1,nBack1Cond.xlsx,None,None,None,None,None,None,,,,,0,0,0,16,0,0,0,0,0,140,140,140,,,,,,,,,,,,,,,,,,,,,,,,,,,,,,,,,,,,,,,,,,,,,,,,,,,,,,,,,,,,,None,None,None,None,None,None,None,None,None,None,None,None,None,None,None,None,None,None,None,None,None,None,None,,001,2022_aug_16_1102,test6,2021.2.3,60.064273577875646,
17,I felt relaxed,1,nBack1Cond.xlsx,None,None,None,None,None,None,,,,,0,0,0,16,0,0,0,0,0,141,141,141,,,,,,,,,,,,,,,,,,,,,,,,,,,,,,,,,,,,,,,,,,,,,,,,,,,,,,,,,,,,,None,None,None,None,None,None,None,None,None,None,None,None,None,None,None,None,None,None,None,None,None,None,None,,001,2022_aug_16_1102,test6,2021.2.3,60.064273577875646,
17,I felt relaxed,1,nBack1Cond.xlsx,None,None,None,None,None,None,,,,,0,0,0,16,0,0,0,0,0,142,142,142,,,,,,,,,,,,,,,,,,,,,,,,,,,,,,,,,,,,,,,,,,,,,,,,,,,,,,,,,,,,,None,None,None,None,None,None,None,None,None,None,None,None,None,None,None,None,None,None,None,None,None,None,None,,001,2022_aug_16_1102,test6,2021.2.3,60.064273577875646,
17,I felt relaxed,1,nBack1Cond.xlsx,None,None,None,None,None,None,,,,,0,0,0,16,0,0,0,0,0,143,143,143,,,,,,,,,,,,,,,,,,,,,,,,,,,,,,,,,,,,,,,,,,,,,,,,,,,,,,,,,,,,,None,None,None,None,None,None,None,None,None,None,None,None,None,None,None,None,None,None,None,None,None,None,None,,001,2022_aug_16_1102,test6,2021.2.3,60.064273577875646,
17,I felt relaxed,1,nBack1Cond.xlsx,None,None,None,None,None,None,,,,,0,0,0,16,0,0,0,0,0,144,144,144,,,,,,,,,,,,,,,,,,,,,,,,,,,,,,,,,,,,,,,,,,,,,,,,,,,,,,,,,,,,,None,None,None,None,None,None,None,None,None,None,None,None,None,None,None,None,None,None,None,None,None,None,None,,001,2022_aug_16_1102,test6,2021.2.3,60.064273577875646,
17,I felt relaxed,1,nBack1Cond.xlsx,None,None,None,None,None,None,,,,,0,0,0,16,0,0,0,0,0,145,145,145,,,,,,,,,,,,,,,,,,,,,,,,,,,,,,,,,,,,,,,,,,,,,,,,,,,,,,,,,,,,,None,None,None,None,None,None,None,None,None,None,None,None,None,None,None,None,None,None,None,None,None,None,None,,001,2022_aug_16_1102,test6,2021.2.3,60.064273577875646,
17,I felt relaxed,1,nBack1Cond.xlsx,None,None,None,None,None,None,,,,,0,0,0,16,0,0,0,0,0,146,146,146,,,,,,,,,,,,,,,,,,,,,,,,,,,,,,,,,,,,,,,,,,,,,,,,,,,,,,,,,,,,,None,None,None,None,None,None,None,None,None,None,None,None,None,None,None,None,None,None,None,None,None,None,None,,001,2022_aug_16_1102,test6,2021.2.3,60.064273577875646,
17,I felt relaxed,1,nBack1Cond.xlsx,None,None,None,None,None,None,,,,,0,0,0,16,0,0,0,0,0,147,147,147,,,,,,,,,,,,,,,,,,,,,,,,,,,,,,,,,,,,,,,,,,,,,,,,,,,,,,,,,,,,,None,None,None,None,None,None,None,None,None,None,None,None,None,None,None,None,None,None,None,None,None,None,None,,001,2022_aug_16_1102,test6,2021.2.3,60.064273577875646,
17,I felt relaxed,1,nBack1Cond.xlsx,None,None,None,None,None,None,,,,,0,0,0,16,0,0,0,0,0,148,148,148,,,,,,,,,,,,,,,,,,,,,,,,,,,,,,,,,,,,,,,,,,,,,,,,,,,,,,,,,,,,,None,None,None,None,None,None,None,None,None,None,None,None,None,None,None,None,None,None,None,None,None,None,None,,001,2022_aug_16_1102,test6,2021.2.3,60.064273577875646,
17,I felt relaxed,1,nBack1Cond.xlsx,None,None,None,None,None,None,,,,,0,0,0,16,0,0,0,0,0,149,149,149,,,,,,,,,,,,,,,,,,,,,,,,,,,,,,,,,,,,,,,,,,,,,,,,,,,,,,,,,,,,,None,None,None,None,None,None,None,None,None,None,None,None,None,None,None,None,None,None,None,None,None,None,None,,001,2022_aug_16_1102,test6,2021.2.3,60.064273577875646,
17,I felt relaxed,1,nBack1Cond.xlsx,None,None,None,None,None,None,,,,,0,0,0,16,0,0,0,0,0,150,150,150,,,,,,,,,,,,,,,,,,,,,,,,,,,,,,,,,,,,,,,,,,,,,,,,,,,,,,,,,,,,,None,None,None,None,None,None,None,None,None,None,None,None,None,None,None,None,None,None,None,None,None,None,None,,001,2022_aug_16_1102,test6,2021.2.3,60.064273577875646,
17,I felt relaxed,1,nBack1Cond.xlsx,None,None,None,None,None,None,,,,,0,0,0,16,0,0,0,0,0,151,151,151,,,,,,,,,,,,,,,,,,,,,,,,,,,,,,,,,,,,,,,,,,,,,,,,,,,,,,,,,,,,,None,None,None,None,None,None,None,None,None,None,None,None,None,None,None,None,None,None,None,None,None,None,None,,001,2022_aug_16_1102,test6,2021.2.3,60.064273577875646,
17,I felt relaxed,1,nBack1Cond.xlsx,None,None,None,None,None,None,,,,,0,0,0,16,0,0,0,0,0,152,152,152,,,,,,,,,,,,,,,,,,,,,,,,,,,,,,,,,,,,,,,,,,,,,,,,,,,,,,,,,,,,,None,None,None,None,None,None,None,None,None,None,None,None,None,None,None,None,None,None,None,None,None,None,None,,001,2022_aug_16_1102,test6,2021.2.3,60.064273577875646,
17,I felt relaxed,1,nBack1Cond.xlsx,None,None,None,None,None,None,,,,,0,0,0,16,0,0,0,0,0,153,153,153,,,,,,,,,,,,,,,,,,,,,,,,,,,,,,,,,,,,,,,,,,,,,,,,,,,,,,,,,,,,,None,None,None,None,None,None,None,None,None,None,None,None,None,None,None,None,None,None,None,None,None,None,None,,001,2022_aug_16_1102,test6,2021.2.3,60.064273577875646,
17,I felt relaxed,1,nBack1Cond.xlsx,None,None,None,None,None,None,,,,,0,0,0,16,0,0,0,0,0,154,154,154,,,,,,,,,,,,,,,,,,,,,,,,,,,,,,,,,,,,,,,,,,,,,,,,,,,,,,,,,,,,,None,None,None,None,None,None,None,None,None,None,None,None,None,None,None,None,None,None,None,None,None,None,None,,001,2022_aug_16_1102,test6,2021.2.3,60.064273577875646,
17,I felt relaxed,1,nBack1Cond.xlsx,None,None,None,None,None,None,,,,,0,0,0,16,0,0,0,0,0,155,155,155,,,,,,,,,,,,,,,,,,,,,,,,,,,,,,,,,,,,,,,,,,,,,,,,,,,,,,,,,,,,,None,None,None,None,None,None,None,None,None,None,None,None,None,None,None,None,None,None,None,None,None,None,None,,001,2022_aug_16_1102,test6,2021.2.3,60.064273577875646,
17,I felt relaxed,1,nBack1Cond.xlsx,None,None,None,None,None,None,,,,,0,0,0,16,0,0,0,0,0,156,156,156,,,,,,,,,,,,,,,,,,,,,,,,,,,,,,,,,,,,,,,,,,,,,,,,,,,,,,,,,,,,,None,None,None,None,None,None,None,None,None,None,None,None,None,None,None,None,None,None,None,None,None,None,None,,001,2022_aug_16_1102,test6,2021.2.3,60.064273577875646,
17,I felt relaxed,1,nBack1Cond.xlsx,None,None,None,None,None,None,,,,,0,0,0,16,0,0,0,0,0,157,157,157,,,,,,,,,,,,,,,,,,,,,,,,,,,,,,,,,,,,,,,,,,,,,,,,,,,,,,,,,,,,,None,None,None,None,None,None,None,None,None,None,None,None,None,None,None,None,None,None,None,None,None,None,None,,001,2022_aug_16_1102,test6,2021.2.3,60.064273577875646,
17,I felt relaxed,1,nBack1Cond.xlsx,None,None,None,None,None,None,,,,,0,0,0,16,0,0,0,0,0,158,158,158,,,,,,,,,,,,,,,,,,,,,,,,,,,,,,,,,,,,,,,,,,,,,,,,,,,,,,,,,,,,,None,None,None,None,None,None,None,None,None,None,None,None,None,None,None,None,None,None,None,None,None,None,None,,001,2022_aug_16_1102,test6,2021.2.3,60.064273577875646,
17,I felt relaxed,1,nBack1Cond.xlsx,None,None,None,None,None,None,,,,,0,0,0,16,0,0,0,0,0,159,159,159,,,,,,,,,,,,,,,,,,,,,,,,,,,,,,,,,,,,,,,,,,,,,,,,,,,,,,,,,,,,,None,None,None,None,None,None,None,None,None,None,None,None,None,None,None,None,None,None,None,None,None,None,None,,001,2022_aug_16_1102,test6,2021.2.3,60.064273577875646,
17,I felt relaxed,1,nBack1Cond.xlsx,None,None,None,None,None,None,,,,,0,0,0,16,0,0,0,0,0,160,160,160,,,,,,,,,,,,,,,,,,,,,,,,,,,,,,,,,,,,,,,,,,,,,,,,,,,,,,,,,,,,,None,None,None,None,None,None,None,None,None,None,None,None,None,None,None,None,None,None,None,None,None,None,None,,001,2022_aug_16_1102,test6,2021.2.3,60.064273577875646,
17,I felt relaxed,1,nBack1Cond.xlsx,None,None,None,None,None,None,,,,,0,0,0,16,0,0,0,0,0,161,161,161,,,,,,,,,,,,,,,,,,,,,,,,,,,,,,,,,,,,,,,,,,,,,,,,,,,,,,,,,,,,,None,None,None,None,None,None,None,None,None,None,None,None,None,None,None,None,None,None,None,None,None,None,None,,001,2022_aug_16_1102,test6,2021.2.3,60.064273577875646,
17,I felt relaxed,1,nBack1Cond.xlsx,None,None,None,None,None,None,,,,,0,0,0,16,0,0,0,0,0,162,162,162,,,,,,,,,,,,,,,,,,,,,,,,,,,,,,,,,,,,,,,,,,,,,,,,,,,,,,,,,,,,,None,None,None,None,None,None,None,None,None,None,None,None,None,None,None,None,None,None,None,None,None,None,None,,001,2022_aug_16_1102,test6,2021.2.3,60.064273577875646,
17,I felt relaxed,1,nBack1Cond.xlsx,None,None,None,None,None,None,,,,,0,0,0,16,0,0,0,0,0,163,163,163,,,,,,,,,,,,,,,,,,,,,,,,,,,,,,,,,,,,,,,,,,,,,,,,,,,,,,,,,,,,,None,None,None,None,None,None,None,None,None,None,None,None,None,None,None,None,None,None,None,None,None,None,None,,001,2022_aug_16_1102,test6,2021.2.3,60.064273577875646,
17,I felt relaxed,1,nBack1Cond.xlsx,None,None,None,None,None,None,,,,,0,0,0,16,0,0,0,0,0,164,164,164,,,,,,,,,,,,,,,,,,,,,,,,,,,,,,,,,,,,,,,,,,,,,,,,,,,,,,,,,,,,,None,None,None,None,None,None,None,None,None,None,None,None,None,None,None,None,None,None,None,None,None,None,None,,001,2022_aug_16_1102,test6,2021.2.3,60.064273577875646,
17,I felt relaxed,1,nBack1Cond.xlsx,None,None,None,None,None,None,,,,,0,0,0,16,0,0,0,0,0,165,165,165,,,,,,,,,,,,,,,,,,,,,,,,,,,,,,,,,,,,,,,,,,,,,,,,,,,,,,,,,,,,,None,None,None,None,None,None,None,None,None,None,None,None,None,None,None,None,None,None,None,None,None,None,None,,001,2022_aug_16_1102,test6,2021.2.3,60.064273577875646,
17,I felt relaxed,1,nBack1Cond.xlsx,None,None,None,None,None,None,,,,,0,0,0,16,0,0,0,0,0,166,166,166,,,,,,,,,,,,,,,,,,,,,,,,,,,,,,,,,,,,,,,,,,,,,,,,,,,,,,,,,,,,,None,None,None,None,None,None,None,None,None,None,None,None,None,None,None,None,None,None,None,None,None,None,None,,001,2022_aug_16_1102,test6,2021.2.3,60.064273577875646,
17,I felt relaxed,1,nBack1Cond.xlsx,None,None,None,None,None,None,,,,,0,0,0,16,0,0,0,0,0,167,167,167,,,,,,,,,,,,,,,,,,,,,,,,,,,,,,,,,,,,,,,,,,,,,,,,,,,,,,,,,,,,,None,None,None,None,None,None,None,None,None,None,None,None,None,None,None,None,None,None,None,None,None,None,None,,001,2022_aug_16_1102,test6,2021.2.3,60.064273577875646,
17,I felt relaxed,1,nBack1Cond.xlsx,None,None,None,None,None,None,,,,,0,0,0,16,0,0,0,0,0,168,168,168,,,,,,,,,,,,,,,,,,,,,,,,,,,,,,,,,,,,,,,,,,,,,,,,,,,,,,,,,,,,,None,None,None,None,None,None,None,None,None,None,None,None,None,None,None,None,None,None,None,None,None,None,None,,001,2022_aug_16_1102,test6,2021.2.3,60.064273577875646,
17,I felt relaxed,1,nBack1Cond.xlsx,None,None,None,None,None,None,,,,,0,0,0,16,0,0,0,0,0,169,169,169,,,,,,,,,,,,,,,,,,,,,,,,,,,,,,,,,,,,,,,,,,,,,,,,,,,,,,,,,,,,,None,None,None,None,None,None,None,None,None,None,None,None,None,None,None,None,None,None,None,None,None,None,None,,001,2022_aug_16_1102,test6,2021.2.3,60.064273577875646,
17,I felt relaxed,1,nBack1Cond.xlsx,None,None,None,None,None,None,,,,,0,0,0,16,0,0,0,0,0,170,170,170,,,,,,,,,,,,,,,,,,,,,,,,,,,,,,,,,,,,,,,,,,,,,,,,,,,,,,,,,,,,,None,None,None,None,None,None,None,None,None,None,None,None,None,None,None,None,None,None,None,None,None,None,None,,001,2022_aug_16_1102,test6,2021.2.3,60.064273577875646,
17,I felt relaxed,1,nBack1Cond.xlsx,None,None,None,None,None,None,,,,,0,0,0,16,0,0,0,0,0,171,171,171,,,,,,,,,,,,,,,,,,,,,,,,,,,,,,,,,,,,,,,,,,,,,,,,,,,,,,,,,,,,,None,None,None,None,None,None,None,None,None,None,None,None,None,None,None,None,None,None,None,None,None,None,None,,001,2022_aug_16_1102,test6,2021.2.3,60.064273577875646,
17,I felt relaxed,1,nBack1Cond.xlsx,None,None,None,None,None,None,,,,,0,0,0,16,0,0,0,0,0,172,172,172,,,,,,,,,,,,,,,,,,,,,,,,,,,,,,,,,,,,,,,,,,,,,,,,,,,,,,,,,,,,,None,None,None,None,None,None,None,None,None,None,None,None,None,None,None,None,None,None,None,None,None,None,None,,001,2022_aug_16_1102,test6,2021.2.3,60.064273577875646,
17,I felt relaxed,1,nBack1Cond.xlsx,None,None,None,None,None,None,,,,,0,0,0,16,0,0,0,0,0,173,173,173,,,,,,,,,,,,,,,,,,,,,,,,,,,,,,,,,,,,,,,,,,,,,,,,,,,,,,,,,,,,,None,None,None,None,None,None,None,None,None,None,None,None,None,None,None,None,None,None,None,None,None,None,None,,001,2022_aug_16_1102,test6,2021.2.3,60.064273577875646,
17,I felt relaxed,1,nBack1Cond.xlsx,None,None,None,None,None,None,,,,,0,0,0,16,0,0,0,0,0,174,174,174,,,,,,,,,,,,,,,,,,,,,,,,,,,,,,,,,,,,,,,,,,,,,,,,,,,,,,,,,,,,,None,None,None,None,None,None,None,None,None,None,None,None,None,None,None,None,None,None,None,None,None,None,None,,001,2022_aug_16_1102,test6,2021.2.3,60.064273577875646,
17,I felt relaxed,1,nBack1Cond.xlsx,None,None,None,None,None,None,,,,,0,0,0,16,0,0,0,0,0,175,175,175,,,,,,,,,,,,,,,,,,,,,,,,,,,,,,,,,,,,,,,,,,,,,,,,,,,,,,,,,,,,,None,None,None,None,None,None,None,None,None,None,None,None,None,None,None,None,None,None,None,None,None,None,None,,001,2022_aug_16_1102,test6,2021.2.3,60.064273577875646,
17,I felt relaxed,1,nBack1Cond.xlsx,None,None,None,None,None,None,,,,,0,0,0,16,0,0,0,0,0,176,176,176,,,,,,,,,,,,,,,,,,,,,,,,,,,,,,,,,,,,,,,,,,,,,,,,,,,,,,,,,,,,,None,None,None,None,None,None,None,None,None,None,None,None,None,None,None,None,None,None,None,None,None,None,None,,001,2022_aug_16_1102,test6,2021.2.3,60.064273577875646,
17,I felt relaxed,1,nBack1Cond.xlsx,None,None,None,None,None,None,,,,,0,0,0,16,0,0,0,0,0,177,177,177,,,,,,,,,,,,,,,,,,,,,,,,,,,,,,,,,,,,,,,,,,,,,,,,,,,,,,,,,,,,,None,None,None,None,None,None,None,None,None,None,None,None,None,None,None,None,None,None,None,None,None,None,None,,001,2022_aug_16_1102,test6,2021.2.3,60.064273577875646,
17,I felt relaxed,1,nBack1Cond.xlsx,None,None,None,None,None,None,,,,,0,0,0,16,0,0,0,0,0,178,178,178,,,,,,,,,,,,,,,,,,,,,,,,,,,,,,,,,,,,,,,,,,,,,,,,,,,,,,,,,,,,,None,None,None,None,None,None,None,None,None,None,None,None,None,None,None,None,None,None,None,None,None,None,None,,001,2022_aug_16_1102,test6,2021.2.3,60.064273577875646,
17,I felt relaxed,1,nBack1Cond.xlsx,None,None,None,None,None,None,,,,,0,0,0,16,0,0,0,0,0,179,179,179,,,,,,,,,,,,,,,,,,,,,,,,,,,,,,,,,,,,,,,,,,,,,,,,,,,,,,,,,,,,,None,None,None,None,None,None,None,None,None,None,None,None,None,None,None,None,None,None,None,None,None,None,None,,001,2022_aug_16_1102,test6,2021.2.3,60.064273577875646,
17,I felt relaxed,1,nBack1Cond.xlsx,None,None,None,None,None,None,,,,,0,0,0,16,0,0,0,0,0,180,180,180,,,,,,,,,,,,,,,,,,,,,,,,,,,,,,,,,,,,,,,,,,,,,,,,,,,,,,,,,,,,,None,None,None,None,None,None,None,None,None,None,None,None,None,None,None,None,None,None,None,None,None,None,None,,001,2022_aug_16_1102,test6,2021.2.3,60.064273577875646,
17,I felt relaxed,1,nBack1Cond.xlsx,None,None,None,None,None,None,,,,,0,0,0,16,0,0,0,0,0,181,181,181,,,,,,,,,,,,,,,,,,,,,,,,,,,,,,,,,,,,,,,,,,,,,,,,,,,,,,,,,,,,,None,None,None,None,None,None,None,None,None,None,None,None,None,None,None,None,None,None,None,None,None,None,None,,001,2022_aug_16_1102,test6,2021.2.3,60.064273577875646,
17,I felt relaxed,1,nBack1Cond.xlsx,None,None,None,None,None,None,,,,,0,0,0,16,0,0,0,0,0,182,182,182,,,,,,,,,,,,,,,,,,,,,,,,,,,,,,,,,,,,,,,,,,,,,,,,,,,,,,,,,,,,,None,None,None,None,None,None,None,None,None,None,None,None,None,None,None,None,None,None,None,None,None,None,None,,001,2022_aug_16_1102,test6,2021.2.3,60.064273577875646,
17,I felt relaxed,1,nBack1Cond.xlsx,None,None,None,None,None,None,,,,,0,0,0,16,0,0,0,0,0,183,183,183,,,,,,,,,,,,,,,,,,,,,,,,,,,,,,,,,,,,,,,,,,,,,,,,,,,,,,,,,,,,,None,None,None,None,None,None,None,None,None,None,None,None,None,None,None,None,None,None,None,None,None,None,None,,001,2022_aug_16_1102,test6,2021.2.3,60.064273577875646,
17,I felt relaxed,1,nBack1Cond.xlsx,None,None,None,None,None,None,,,,,0,0,0,16,0,0,0,0,0,184,184,184,,,,,,,,,,,,,,,,,,,,,,,,,,,,,,,,,,,,,,,,,,,,,,,,,,,,,,,,,,,,,None,None,None,None,None,None,None,None,None,None,None,None,None,None,None,None,None,None,None,None,None,None,None,,001,2022_aug_16_1102,test6,2021.2.3,60.064273577875646,
17,I felt relaxed,1,nBack1Cond.xlsx,None,None,None,None,None,None,,,,,0,0,0,16,0,0,0,0,0,185,185,185,,,,,,,,,,,,,,,,,,,,,,,,,,,,,,,,,,,,,,,,,,,,,,,,,,,,,,,,,,,,,None,None,None,None,None,None,None,None,None,None,None,None,None,None,None,None,None,None,None,None,None,None,None,,001,2022_aug_16_1102,test6,2021.2.3,60.064273577875646,
17,I felt relaxed,1,nBack1Cond.xlsx,None,None,None,None,None,None,,,,,0,0,0,16,0,0,0,0,0,186,186,186,,,,,,,,,,,,,,,,,,,,,,,,,,,,,,,,,,,,,,,,,,,,,,,,,,,,,,,,,,,,,None,None,None,None,None,None,None,None,None,None,None,None,None,None,None,None,None,None,None,None,None,None,None,,001,2022_aug_16_1102,test6,2021.2.3,60.064273577875646,
17,I felt relaxed,1,nBack1Cond.xlsx,None,None,None,None,None,None,,,,,0,0,0,16,0,0,0,0,0,187,187,187,,,,,,,,,,,,,,,,,,,,,,,,,,,,,,,,,,,,,,,,,,,,,,,,,,,,,,,,,,,,,None,None,None,None,None,None,None,None,None,None,None,None,None,None,None,None,None,None,None,None,None,None,None,,001,2022_aug_16_1102,test6,2021.2.3,60.064273577875646,
17,I felt relaxed,1,nBack1Cond.xlsx,None,None,None,None,None,None,,,,,0,0,0,16,0,0,0,0,0,188,188,188,,,,,,,,,,,,,,,,,,,,,,,,,,,,,,,,,,,,,,,,,,,,,,,,,,,,,,,,,,,,,None,None,None,None,None,None,None,None,None,None,None,None,None,None,None,None,None,None,None,None,None,None,None,,001,2022_aug_16_1102,test6,2021.2.3,60.064273577875646,
17,I felt relaxed,1,nBack1Cond.xlsx,None,None,None,None,None,None,,,,,0,0,0,16,0,0,0,0,0,189,189,189,,,,,,,,,,,,,,,,,,,,,,,,,,,,,,,,,,,,,,,,,,,,,,,,,,,,,,,,,,,,,None,None,None,None,None,None,None,None,None,None,None,None,None,None,None,None,None,None,None,None,None,None,None,,001,2022_aug_16_1102,test6,2021.2.3,60.064273577875646,
17,I felt relaxed,1,nBack1Cond.xlsx,None,None,None,None,None,None,,,,,0,0,0,16,0,0,0,0,0,190,190,190,,,,,,,,,,,,,,,,,,,,,,,,,,,,,,,,,,,,,,,,,,,,,,,,,,,,,,,,,,,,,None,None,None,None,None,None,None,None,None,None,None,None,None,None,None,None,None,None,None,None,None,None,None,,001,2022_aug_16_1102,test6,2021.2.3,60.064273577875646,
17,I felt relaxed,1,nBack1Cond.xlsx,None,None,None,None,None,None,,,,,0,0,0,16,0,0,0,0,0,191,191,191,,,,,,,,,,,,,,,,,,,,,,,,,,,,,,,,,,,,,,,,,,,,,,,,,,,,,,,,,,,,,None,None,None,None,None,None,None,None,None,None,None,None,None,None,None,None,None,None,None,None,None,None,None,,001,2022_aug_16_1102,test6,2021.2.3,60.064273577875646,
17,I felt relaxed,1,nBack1Cond.xlsx,None,None,None,None,None,None,,,,,0,0,0,16,0,0,0,0,0,192,192,192,,,,,,,,,,,,,,,,,,,,,,,,,,,,,,,,,,,,,,,,,,,,,,,,,,,,,,,,,,,,,None,None,None,None,None,None,None,None,None,None,None,None,None,None,None,None,None,None,None,None,None,None,None,,001,2022_aug_16_1102,test6,2021.2.3,60.064273577875646,
17,I felt relaxed,1,nBack1Cond.xlsx,None,None,None,None,None,None,,,,,0,0,0,16,0,0,0,0,0,193,193,193,,,,,,,,,,,,,,,,,,,,,,,,,,,,,,,,,,,,,,,,,,,,,,,,,,,,,,,,,,,,,None,None,None,None,None,None,None,None,None,None,None,None,None,None,None,None,None,None,None,None,None,None,None,,001,2022_aug_16_1102,test6,2021.2.3,60.064273577875646,
17,I felt relaxed,1,nBack1Cond.xlsx,None,None,None,None,None,None,,,,,0,0,0,16,0,0,0,0,0,194,194,194,,,,,,,,,,,,,,,,,,,,,,,,,,,,,,,,,,,,,,,,,,,,,,,,,,,,,,,,,,,,,None,None,None,None,None,None,None,None,None,None,None,None,None,None,None,None,None,None,None,None,None,None,None,,001,2022_aug_16_1102,test6,2021.2.3,60.064273577875646,
17,I felt relaxed,1,nBack1Cond.xlsx,None,None,None,None,None,None,,,,,0,0,0,16,0,0,0,0,0,195,195,195,,,,,,,,,,,,,,,,,,,,,,,,,,,,,,,,,,,,,,,,,,,,,,,,,,,,,,,,,,,,,None,None,None,None,None,None,None,None,None,None,None,None,None,None,None,None,None,None,None,None,None,None,None,,001,2022_aug_16_1102,test6,2021.2.3,60.064273577875646,
17,I felt relaxed,1,nBack1Cond.xlsx,None,None,None,None,None,None,,,,,0,0,0,16,0,0,0,0,0,196,196,196,,,,,,,,,,,,,,,,,,,,,,,,,,,,,,,,,,,,,,,,,,,,,,,,,,,,,,,,,,,,,None,None,None,None,None,None,None,None,None,None,None,None,None,None,None,None,None,None,None,None,None,None,None,,001,2022_aug_16_1102,test6,2021.2.3,60.064273577875646,
17,I felt relaxed,1,nBack1Cond.xlsx,None,None,None,None,None,None,,,,,0,0,0,16,0,0,0,0,0,197,197,197,,,,,,,,,,,,,,,,,,,,,,,,,,,,,,,,,,,,,,,,,,,,,,,,,,,,,,,,,,,,,None,None,None,None,None,None,None,None,None,None,None,None,None,None,None,None,None,None,None,None,None,None,None,,001,2022_aug_16_1102,test6,2021.2.3,60.064273577875646,
17,I felt relaxed,1,nBack1Cond.xlsx,None,None,None,None,None,None,,,,,0,0,0,16,0,0,0,0,0,198,198,198,,,,,,,,,,,,,,,,,,,,,,,,,,,,,,,,,,,,,,,,,,,,,,,,,,,,,,,,,,,,,None,None,None,None,None,None,None,None,None,None,None,None,None,None,None,None,None,None,None,None,None,None,None,,001,2022_aug_16_1102,test6,2021.2.3,60.064273577875646,
17,I felt relaxed,1,nBack1Cond.xlsx,None,None,None,None,None,None,,,,,0,0,0,16,0,0,0,0,0,199,199,199,,,,,,,,,,,,,,,,,,,,,,,,,,,,,,,,,,,,,,,,,,,,,,,,,,,,,,,,,,,,,None,None,None,None,None,None,None,None,None,None,None,None,None,None,None,None,None,None,None,None,None,None,None,,001,2022_aug_16_1102,test6,2021.2.3,60.064273577875646,
17,I felt relaxed,1,nBack1Cond.xlsx,None,None,None,None,None,None,,,,,0,0,0,16,0,0,0,0,0,200,200,200,,,,,,,,,,,,,,,,,,,,,,,,,,,,,,,,,,,,,,,,,,,,,,,,,,,,,,,,,,,,,None,None,None,None,None,None,None,None,None,None,None,None,None,None,None,None,None,None,None,None,None,None,None,,001,2022_aug_16_1102,test6,2021.2.3,60.064273577875646,
17,I felt relaxed,1,nBack1Cond.xlsx,None,None,None,None,None,None,,,,,0,0,0,16,0,0,0,0,0,201,201,201,,,,,,,,,,,,,,,,,,,,,,,,,,,,,,,,,,,,,,,,,,,,,,,,,,,,,,,,,,,,,None,None,None,None,None,None,None,None,None,None,None,None,None,None,None,None,None,None,None,None,None,None,None,,001,2022_aug_16_1102,test6,2021.2.3,60.064273577875646,
17,I felt relaxed,1,nBack1Cond.xlsx,None,None,None,None,None,None,,,,,0,0,0,16,0,0,0,0,0,202,202,202,,,,,,,,,,,,,,,,,,,,,,,,,,,,,,,,,,,,,,,,,,,,,,,,,,,,,,,,,,,,,None,None,None,None,None,None,None,None,None,None,None,None,None,None,None,None,None,None,None,None,None,None,None,,001,2022_aug_16_1102,test6,2021.2.3,60.064273577875646,
17,I felt relaxed,1,nBack1Cond.xlsx,None,None,None,None,None,None,,,,,0,0,0,16,0,0,0,0,0,203,203,203,,,,,,,,,,,,,,,,,,,,,,,,,,,,,,,,,,,,,,,,,,,,,,,,,,,,,,,,,,,,,None,None,None,None,None,None,None,None,None,None,None,None,None,None,None,None,None,None,None,None,None,None,None,,001,2022_aug_16_1102,test6,2021.2.3,60.064273577875646,
17,I felt relaxed,1,nBack1Cond.xlsx,None,None,None,None,None,None,,,,,0,0,0,16,0,0,0,0,0,204,204,204,,,,,,,,,,,,,,,,,,,,,,,,,,,,,,,,,,,,,,,,,,,,,,,,,,,,,,,,,,,,,None,None,None,None,None,None,None,None,None,None,None,None,None,None,None,None,None,None,None,None,None,None,None,,001,2022_aug_16_1102,test6,2021.2.3,60.064273577875646,
17,I felt relaxed,1,nBack1Cond.xlsx,None,None,None,None,None,None,,,,,0,0,0,16,0,0,0,0,0,205,205,205,,,,,,,,,,,,,,,,,,,,,,,,,,,,,,,,,,,,,,,,,,,,,,,,,,,,,,,,,,,,,None,None,None,None,None,None,None,None,None,None,None,None,None,None,None,None,None,None,None,None,None,None,None,,001,2022_aug_16_1102,test6,2021.2.3,60.064273577875646,
17,I felt relaxed,1,nBack1Cond.xlsx,None,None,None,None,None,None,,,,,0,0,0,16,0,0,0,0,0,206,206,206,,,,,,,,,,,,,,,,,,,,,,,,,,,,,,,,,,,,,,,,,,,,,,,,,,,,,,,,,,,,,None,None,None,None,None,None,None,None,None,None,None,None,None,None,None,None,None,None,None,None,None,None,None,,001,2022_aug_16_1102,test6,2021.2.3,60.064273577875646,
17,I felt relaxed,1,nBack1Cond.xlsx,None,None,None,None,None,None,,,,,0,0,0,16,0,0,0,0,0,207,207,207,,,,,,,,,,,,,,,,,,,,,,,,,,,,,,,,,,,,,,,,,,,,,,,,,,,,,,,,,,,,,None,None,None,None,None,None,None,None,None,None,None,None,None,None,None,None,None,None,None,None,None,None,None,,001,2022_aug_16_1102,test6,2021.2.3,60.064273577875646,
17,I felt relaxed,1,nBack1Cond.xlsx,None,None,None,None,None,None,,,,,0,0,0,16,0,0,0,0,0,208,208,208,,,,,,,,,,,,,,,,,,,,,,,,,,,,,,,,,,,,,,,,,,,,,,,,,,,,,,,,,,,,,None,None,None,None,None,None,None,None,None,None,None,None,None,None,None,None,None,None,None,None,None,None,None,,001,2022_aug_16_1102,test6,2021.2.3,60.064273577875646,
17,I felt relaxed,1,nBack1Cond.xlsx,None,None,None,None,None,None,,,,,0,0,0,16,0,0,0,0,0,209,209,209,,,,,,,,,,,,,,,,,,,,,,,,,,,,,,,,,,,,,,,,,,,,,,,,,,,,,,,,,,,,,None,None,None,None,None,None,None,None,None,None,None,None,None,None,None,None,None,None,None,None,None,None,None,,001,2022_aug_16_1102,test6,2021.2.3,60.064273577875646,
17,I felt relaxed,1,nBack1Cond.xlsx,None,None,None,None,None,None,,,,,0,0,0,16,0,0,0,0,0,210,210,210,,,,,,,,,,,,,,,,,,,,,,,,,,,,,,,,,,,,,,,,,,,,,,,,,,,,,,,,,,,,,None,None,None,None,None,None,None,None,None,None,None,None,None,None,None,None,None,None,None,None,None,None,None,,001,2022_aug_16_1102,test6,2021.2.3,60.064273577875646,
17,I felt relaxed,1,nBack1Cond.xlsx,None,None,None,None,None,None,,,,,0,0,0,16,0,0,0,0,0,211,211,211,,,,,,,,,,,,,,,,,,,,,,,,,,,,,,,,,,,,,,,,,,,,,,,,,,,,,,,,,,,,,None,None,None,None,None,None,None,None,None,None,None,None,None,None,None,None,None,None,None,None,None,None,None,,001,2022_aug_16_1102,test6,2021.2.3,60.064273577875646,
17,I felt relaxed,1,nBack1Cond.xlsx,None,None,None,None,None,None,,,,,0,0,0,16,0,0,0,0,0,212,212,212,,,,,,,,,,,,,,,,,,,,,,,,,,,,,,,,,,,,,,,,,,,,,,,,,,,,,,,,,,,,,None,None,None,None,None,None,None,None,None,None,None,None,None,None,None,None,None,None,None,None,None,None,None,,001,2022_aug_16_1102,test6,2021.2.3,60.064273577875646,
17,I felt relaxed,1,nBack1Cond.xlsx,None,None,None,None,None,None,,,,,0,0,0,16,0,0,0,0,0,213,213,213,,,,,,,,,,,,,,,,,,,,,,,,,,,,,,,,,,,,,,,,,,,,,,,,,,,,,,,,,,,,,None,None,None,None,None,None,None,None,None,None,None,None,None,None,None,None,None,None,None,None,None,None,None,,001,2022_aug_16_1102,test6,2021.2.3,60.064273577875646,
17,I felt relaxed,1,nBack1Cond.xlsx,None,None,None,None,None,None,,,,,0,0,0,16,0,0,0,0,0,214,214,214,,,,,,,,,,,,,,,,,,,,,,,,,,,,,,,,,,,,,,,,,,,,,,,,,,,,,,,,,,,,,None,None,None,None,None,None,None,None,None,None,None,None,None,None,None,None,None,None,None,None,None,None,None,,001,2022_aug_16_1102,test6,2021.2.3,60.064273577875646,
17,I felt relaxed,1,nBack1Cond.xlsx,None,None,None,None,None,None,,,,,0,0,0,16,0,0,0,0,0,215,215,215,,,,,,,,,,,,,,,,,,,,,,,,,,,,,,,,,,,,,,,,,,,,,,,,,,,,,,,,,,,,,None,None,None,None,None,None,None,None,None,None,None,None,None,None,None,None,None,None,None,None,None,None,None,,001,2022_aug_16_1102,test6,2021.2.3,60.064273577875646,
17,I felt relaxed,1,nBack1Cond.xlsx,None,None,None,None,None,None,,,,,0,0,0,16,0,0,0,0,0,216,216,216,,,,,,,,,,,,,,,,,,,,,,,,,,,,,,,,,,,,,,,,,,,,,,,,,,,,,,,,,,,,,None,None,None,None,None,None,None,None,None,None,None,None,None,None,None,None,None,None,None,None,None,None,None,,001,2022_aug_16_1102,test6,2021.2.3,60.064273577875646,
17,I felt relaxed,1,nBack1Cond.xlsx,None,None,None,None,None,None,,,,,0,0,0,16,0,0,0,0,0,217,217,217,,,,,,,,,,,,,,,,,,,,,,,,,,,,,,,,,,,,,,,,,,,,,,,,,,,,,,,,,,,,,None,None,None,None,None,None,None,None,None,None,None,None,None,None,None,None,None,None,None,None,None,None,None,,001,2022_aug_16_1102,test6,2021.2.3,60.064273577875646,
17,I felt relaxed,1,nBack1Cond.xlsx,None,None,None,None,None,None,,,,,0,0,0,16,0,0,0,0,0,218,218,218,,,,,,,,,,,,,,,,,,,,,,,,,,,,,,,,,,,,,,,,,,,,,,,,,,,,,,,,,,,,,None,None,None,None,None,None,None,None,None,None,None,None,None,None,None,None,None,None,None,None,None,None,None,,001,2022_aug_16_1102,test6,2021.2.3,60.064273577875646,
17,I felt relaxed,1,nBack1Cond.xlsx,None,None,None,None,None,None,,,,,0,0,0,16,0,0,0,0,0,219,219,219,,,,,,,,,,,,,,,,,,,,,,,,,,,,,,,,,,,,,,,,,,,,,,,,,,,,,,,,,,,,,None,None,None,None,None,None,None,None,None,None,None,None,None,None,None,None,None,None,None,None,None,None,None,,001,2022_aug_16_1102,test6,2021.2.3,60.064273577875646,
17,I felt relaxed,1,nBack1Cond.xlsx,None,None,None,None,None,None,,,,,0,0,0,16,0,0,0,0,0,220,220,220,,,,,,,,,,,,,,,,,,,,,,,,,,,,,,,,,,,,,,,,,,,,,,,,,,,,,,,,,,,,,None,None,None,None,None,None,None,None,None,None,None,None,None,None,None,None,None,None,None,None,None,None,None,,001,2022_aug_16_1102,test6,2021.2.3,60.064273577875646,
17,I felt relaxed,1,nBack1Cond.xlsx,None,None,None,None,None,None,,,,,0,0,0,16,0,0,0,0,0,221,221,221,,,,,,,,,,,,,,,,,,,,,,,,,,,,,,,,,,,,,,,,,,,,,,,,,,,,,,,,,,,,,None,None,None,None,None,None,None,None,None,None,None,None,None,None,None,None,None,None,None,None,None,None,None,,001,2022_aug_16_1102,test6,2021.2.3,60.064273577875646,
17,I felt relaxed,1,nBack1Cond.xlsx,None,None,None,None,None,None,,,,,0,0,0,16,0,0,0,0,0,222,222,222,,,,,,,,,,,,,,,,,,,,,,,,,,,,,,,,,,,,,,,,,,,,,,,,,,,,,,,,,,,,,None,None,None,None,None,None,None,None,None,None,None,None,None,None,None,None,None,None,None,None,None,None,None,,001,2022_aug_16_1102,test6,2021.2.3,60.064273577875646,
17,I felt relaxed,1,nBack1Cond.xlsx,None,None,None,None,None,None,,,,,0,0,0,16,0,0,0,0,0,223,223,223,,,,,,,,,,,,,,,,,,,,,,,,,,,,,,,,,,,,,,,,,,,,,,,,,,,,,,,,,,,,,None,None,None,None,None,None,None,None,None,None,None,None,None,None,None,None,None,None,None,None,None,None,None,,001,2022_aug_16_1102,test6,2021.2.3,60.064273577875646,
17,I felt relaxed,1,nBack1Cond.xlsx,None,None,None,None,None,None,,,,,0,0,0,16,0,0,0,0,0,224,224,224,,,,,,,,,,,,,,,,,,,,,,,,,,,,,,,,,,,,,,,,,,,,,,,,,,,,,,,,,,,,,None,None,None,None,None,None,None,None,None,None,None,None,None,None,None,None,None,None,None,None,None,None,None,,001,2022_aug_16_1102,test6,2021.2.3,60.064273577875646,
17,I felt relaxed,1,nBack1Cond.xlsx,None,None,None,None,None,None,,,,,0,0,0,16,0,0,0,0,0,225,225,225,,,,,,,,,,,,,,,,,,,,,,,,,,,,,,,,,,,,,,,,,,,,,,,,,,,,,,,,,,,,,None,None,None,None,None,None,None,None,None,None,None,None,None,None,None,None,None,None,None,None,None,None,None,,001,2022_aug_16_1102,test6,2021.2.3,60.064273577875646,
17,I felt relaxed,1,nBack1Cond.xlsx,None,None,None,None,None,None,,,,,0,0,0,16,0,0,0,0,0,226,226,226,,,,,,,,,,,,,,,,,,,,,,,,,,,,,,,,,,,,,,,,,,,,,,,,,,,,,,,,,,,,,None,None,None,None,None,None,None,None,None,None,None,None,None,None,None,None,None,None,None,None,None,None,None,,001,2022_aug_16_1102,test6,2021.2.3,60.064273577875646,
17,I felt relaxed,1,nBack1Cond.xlsx,None,None,None,None,None,None,,,,,0,0,0,16,0,0,0,0,0,227,227,227,,,,,,,,,,,,,,,,,,,,,,,,,,,,,,,,,,,,,,,,,,,,,,,,,,,,,,,,,,,,,None,None,None,None,None,None,None,None,None,None,None,None,None,None,None,None,None,None,None,None,None,None,None,,001,2022_aug_16_1102,test6,2021.2.3,60.064273577875646,
17,I felt relaxed,1,nBack1Cond.xlsx,None,None,None,None,None,None,,,,,0,0,0,16,0,0,0,0,0,228,228,228,,,,,,,,,,,,,,,,,,,,,,,,,,,,,,,,,,,,,,,,,,,,,,,,,,,,,,,,,,,,,None,None,None,None,None,None,None,None,None,None,None,None,None,None,None,None,None,None,None,None,None,None,None,,001,2022_aug_16_1102,test6,2021.2.3,60.064273577875646,
17,I felt relaxed,1,nBack1Cond.xlsx,None,None,None,None,None,None,,,,,0,0,0,16,0,0,0,0,0,229,229,229,,,,,,,,,,,,,,,,,,,,,,,,,,,,,,,,,,,,,,,,,,,,,,,,,,,,,,,,,,,,,None,None,None,None,None,None,None,None,None,None,None,None,None,None,None,None,None,None,None,None,None,None,None,,001,2022_aug_16_1102,test6,2021.2.3,60.064273577875646,
17,I felt relaxed,1,nBack1Cond.xlsx,None,None,None,None,None,None,,,,,0,0,0,16,0,0,0,0,0,230,230,230,,,,,,,,,,,,,,,,,,,,,,,,,,,,,,,,,,,,,,,,,,,,,,,,,,,,,,,,,,,,,None,None,None,None,None,None,None,None,None,None,None,None,None,None,None,None,None,None,None,None,None,None,None,,001,2022_aug_16_1102,test6,2021.2.3,60.064273577875646,
17,I felt relaxed,1,nBack1Cond.xlsx,None,None,None,None,None,None,,,,,0,0,0,16,0,0,0,0,0,231,231,231,,,,,,,,,,,,,,,,,,,,,,,,,,,,,,,,,,,,,,,,,,,,,,,,,,,,,,,,,,,,,None,None,None,None,None,None,None,None,None,None,None,None,None,None,None,None,None,None,None,None,None,None,None,,001,2022_aug_16_1102,test6,2021.2.3,60.064273577875646,
17,I felt relaxed,1,nBack1Cond.xlsx,None,None,None,None,None,None,,,,,0,0,0,16,0,0,0,0,0,232,232,232,,,,,,,,,,,,,,,,,,,,,,,,,,,,,,,,,,,,,,,,,,,,,,,,,,,,,,,,,,,,,None,None,None,None,None,None,None,None,None,None,None,None,None,None,None,None,None,None,None,None,None,None,None,,001,2022_aug_16_1102,test6,2021.2.3,60.064273577875646,
17,I felt relaxed,1,nBack1Cond.xlsx,None,None,None,None,None,None,,,,,0,0,0,16,0,0,0,0,0,233,233,233,,,,,,,,,,,,,,,,,,,,,,,,,,,,,,,,,,,,,,,,,,,,,,,,,,,,,,,,,,,,,None,None,None,None,None,None,None,None,None,None,None,None,None,None,None,None,None,None,None,None,None,None,None,,001,2022_aug_16_1102,test6,2021.2.3,60.064273577875646,
17,I felt relaxed,1,nBack1Cond.xlsx,None,None,None,None,None,None,,,,,0,0,0,16,0,0,0,0,0,234,234,234,,,,,,,,,,,,,,,,,,,,,,,,,,,,,,,,,,,,,,,,,,,,,,,,,,,,,,,,,,,,,None,None,None,None,None,None,None,None,None,None,None,None,None,None,None,None,None,None,None,None,None,None,None,,001,2022_aug_16_1102,test6,2021.2.3,60.064273577875646,
17,I felt relaxed,1,nBack1Cond.xlsx,None,None,None,None,None,None,,,,,0,0,0,16,0,0,0,0,0,235,235,235,,,,,,,,,,,,,,,,,,,,,,,,,,,,,,,,,,,,,,,,,,,,,,,,,,,,,,,,,,,,,None,None,None,None,None,None,None,None,None,None,None,None,None,None,None,None,None,None,None,None,None,None,None,,001,2022_aug_16_1102,test6,2021.2.3,60.064273577875646,
17,I felt relaxed,1,nBack1Cond.xlsx,None,None,None,None,None,None,,,,,0,0,0,16,0,0,0,0,0,236,236,236,,,,,,,,,,,,,,,,,,,,,,,,,,,,,,,,,,,,,,,,,,,,,,,,,,,,,,,,,,,,,None,None,None,None,None,None,None,None,None,None,None,None,None,None,None,None,None,None,None,None,None,None,None,,001,2022_aug_16_1102,test6,2021.2.3,60.064273577875646,
17,I felt relaxed,1,nBack1Cond.xlsx,None,None,None,None,None,None,,,,,0,0,0,16,0,0,0,0,0,237,237,237,,,,,,,,,,,,,,,,,,,,,,,,,,,,,,,,,,,,,,,,,,,,,,,,,,,,,,,,,,,,,None,None,None,None,None,None,None,None,None,None,None,None,None,None,None,None,None,None,None,None,None,None,None,,001,2022_aug_16_1102,test6,2021.2.3,60.064273577875646,
17,I felt relaxed,1,nBack1Cond.xlsx,None,None,None,None,None,None,,,,,0,0,0,16,0,0,0,0,0,238,238,238,,,,,,,,,,,,,,,,,,,,,,,,,,,,,,,,,,,,,,,,,,,,,,,,,,,,,,,,,,,,,None,None,None,None,None,None,None,None,None,None,None,None,None,None,None,None,None,None,None,None,None,None,None,,001,2022_aug_16_1102,test6,2021.2.3,60.064273577875646,
17,I felt relaxed,1,nBack1Cond.xlsx,None,None,None,None,None,None,,,,,0,0,0,16,0,0,0,0,0,239,239,239,,,,,,,,,,,,,,,,,,,,,,,,,,,,,,,,,,,,,,,,,,,,,,,,,,,,,,,,,,,,,None,None,None,None,None,None,None,None,None,None,None,None,None,None,None,None,None,None,None,None,None,None,None,,001,2022_aug_16_1102,test6,2021.2.3,60.064273577875646,
17,I felt relaxed,1,nBack1Cond.xlsx,None,None,None,None,None,None,,,,,0,0,0,16,0,0,0,0,0,240,240,240,,,,,,,,,,,,,,,,,,,,,,,,,,,,,,,,,,,,,,,,,,,,,,,,,,,,,,,,,,,,,None,None,None,None,None,None,None,None,None,None,None,None,None,None,None,None,None,None,None,None,None,None,None,,001,2022_aug_16_1102,test6,2021.2.3,60.064273577875646,
17,I felt relaxed,1,nBack1Cond.xlsx,None,None,None,None,None,None,,,,,0,0,0,16,0,0,0,0,0,241,241,241,,,,,,,,,,,,,,,,,,,,,,,,,,,,,,,,,,,,,,,,,,,,,,,,,,,,,,,,,,,,,None,None,None,None,None,None,None,None,None,None,None,None,None,None,None,None,None,None,None,None,None,None,None,,001,2022_aug_16_1102,test6,2021.2.3,60.064273577875646,
17,I felt relaxed,1,nBack1Cond.xlsx,None,None,None,None,None,None,,,,,0,0,0,16,0,0,0,0,0,242,242,242,,,,,,,,,,,,,,,,,,,,,,,,,,,,,,,,,,,,,,,,,,,,,,,,,,,,,,,,,,,,,None,None,None,None,None,None,None,None,None,None,None,None,None,None,None,None,None,None,None,None,None,None,None,,001,2022_aug_16_1102,test6,2021.2.3,60.064273577875646,
17,I felt relaxed,1,nBack1Cond.xlsx,None,None,None,None,None,None,,,,,0,0,0,16,0,0,0,0,0,243,243,243,,,,,,,,,,,,,,,,,,,,,,,,,,,,,,,,,,,,,,,,,,,,,,,,,,,,,,,,,,,,,None,None,None,None,None,None,None,None,None,None,None,None,None,None,None,None,None,None,None,None,None,None,None,,001,2022_aug_16_1102,test6,2021.2.3,60.064273577875646,
17,I felt relaxed,1,nBack1Cond.xlsx,None,None,None,None,None,None,,,,,0,0,0,16,0,0,0,0,0,244,244,244,,,,,,,,,,,,,,,,,,,,,,,,,,,,,,,,,,,,,,,,,,,,,,,,,,,,,,,,,,,,,None,None,None,None,None,None,None,None,None,None,None,None,None,None,None,None,None,None,None,None,None,None,None,,001,2022_aug_16_1102,test6,2021.2.3,60.064273577875646,
17,I felt relaxed,1,nBack1Cond.xlsx,None,None,None,None,None,None,,,,,0,0,0,16,0,0,0,0,0,245,245,245,,,,,,,,,,,,,,,,,,,,,,,,,,,,,,,,,,,,,,,,,,,,,,,,,,,,,,,,,,,,,None,None,None,None,None,None,None,None,None,None,None,None,None,None,None,None,None,None,None,None,None,None,None,,001,2022_aug_16_1102,test6,2021.2.3,60.064273577875646,
17,I felt relaxed,1,nBack1Cond.xlsx,None,None,None,None,None,None,,,,,0,0,0,16,0,0,0,0,0,246,246,246,,,,,,,,,,,,,,,,,,,,,,,,,,,,,,,,,,,,,,,,,,,,,,,,,,,,,,,,,,,,,None,None,None,None,None,None,None,None,None,None,None,None,None,None,None,None,None,None,None,None,None,None,None,,001,2022_aug_16_1102,test6,2021.2.3,60.064273577875646,
17,I felt relaxed,1,nBack1Cond.xlsx,None,None,None,None,None,None,,,,,0,0,0,16,0,0,0,0,0,247,247,247,,,,,,,,,,,,,,,,,,,,,,,,,,,,,,,,,,,,,,,,,,,,,,,,,,,,,,,,,,,,,None,None,None,None,None,None,None,None,None,None,None,None,None,None,None,None,None,None,None,None,None,None,None,,001,2022_aug_16_1102,test6,2021.2.3,60.064273577875646,
17,I felt relaxed,1,nBack1Cond.xlsx,None,None,None,None,None,None,,,,,0,0,0,16,0,0,0,0,0,248,248,248,,,,,,,,,,,,,,,,,,,,,,,,,,,,,,,,,,,,,,,,,,,,,,,,,,,,,,,,,,,,,None,None,None,None,None,None,None,None,None,None,None,None,None,None,None,None,None,None,None,None,None,None,None,,001,2022_aug_16_1102,test6,2021.2.3,60.064273577875646,
17,I felt relaxed,1,nBack1Cond.xlsx,None,None,None,None,None,None,,,,,0,0,0,16,0,0,0,0,0,249,249,249,,,,,,,,,,,,,,,,,,,,,,,,,,,,,,,,,,,,,,,,,,,,,,,,,,,,,,,,,,,,,None,None,None,None,None,None,None,None,None,None,None,None,None,None,None,None,None,None,None,None,None,None,None,,001,2022_aug_16_1102,test6,2021.2.3,60.064273577875646,
17,I felt relaxed,1,nBack1Cond.xlsx,,,,,,,,,,,0,0,0,16,0,0,0,0,,,,,,,,,,,,,,,,,,,,,,,,,,,,,,,,,,,,,,,,,,,,,,,,,,,,,,,,,,,,,,,,,,,,,,,,,,,,,,,,,,,,,,,,,001,2022_aug_16_1102,test6,2021.2.3,60.064273577875646,
