itemnumber,itemtext,wakeup.thisRepN,wakeup.thisTrialN,wakeup.thisN,wakeup.thisIndex,questions.thisRepN,questions.thisTrialN,questions.thisN,questions.thisIndex,nb_taskloop.thisRepN,nb_taskloop.thisTrialN,nb_taskloop.thisN,nb_taskloop.thisIndex,nbackInstruction,condsFile,key_resp_3.keys,key_resp_3.rt,key_resp_3.started,key_resp_3.stopped,text_4.started,text_4.stopped,mouse_2.x,mouse_2.y,mouse_2.leftButton,mouse_2.midButton,mouse_2.rightButton,mouse_2.started,mouse_2.stopped,h_eoec.started,h_eoec.stopped,text_2.started,text_2.stopped,key_resp.keys,key_resp.started,key_resp.stopped,text_3.started,text_3.stopped,key_resp_2.keys,key_resp_2.started,key_resp_2.stopped,img_whte.started,img_whte.stopped,img_black.started,img_black.stopped,text_5.started,text_5.stopped,key_resp_4.keys,key_resp_4.rt,key_resp_4.started,key_resp_4.stopped,mouse.x,mouse.y,mouse.leftButton,mouse.midButton,mouse.rightButton,mouse.started,mouse.stopped,h_arsq.started,h_arsq.stopped,slider.response,slider.rt,slider.started,slider.stopped,text.started,text.stopped,key_resp_9.keys,key_resp_9.started,key_resp_9.stopped,participant,session,date,expName,psychopyVersion,frameRate,
,,,,,,,,,,,,,,,,s,0.5424328860000287,5.386538767000047,None,,,,,,,,,,,,,,,,,,,,,,,,,,,,,,,,,,,,,,,,,,,,,,,,,,,001,2022_aug_16_1103,test6,2021.2.3,60.007650135278126,
,,,,,,,,,,,,,,,,,,,,5.386538767000047,None,-0.8888889,-0.49907407,0,0,0,0.0014098520998686581,None,,,,,,,,,,,,,,,,,,,,,,,,,,,,,,,,,,,,,,,,,,001,2022_aug_16_1103,test6,2021.2.3,60.007650135278126,
,,,,,,,,,,,,,,,,,,,,,,,,,,,,,5.386538767000047,None,None,None,None,None,None,,,,,,,,,,,,,,,,,,,,,,,,,,,,,,,,,,,001,2022_aug_16_1103,test6,2021.2.3,60.007650135278126,
,,,,,,,,,,,,,,,,,,,,,,,,,,,,,,,,,,,,None,None,None,None,None,,,,,,,,,,,,,,,,,,,,,,,,,,,,,,001,2022_aug_16_1103,test6,2021.2.3,60.007650135278126,
,,0,0,0,0,,,,,,,,,,,,,,,,,,,,,,,,,,,,,,,,,,,,None,None,None,None,,,,,,,,,,,,,,,,,,,,,,,,,,001,2022_aug_16_1103,test6,2021.2.3,60.007650135278126,
,,1,0,1,0,,,,,,,,,,,,,,,,,,,,,,,,,,,,,,,,,,,,None,None,None,None,,,,,,,,,,,,,,,,,,,,,,,,,,001,2022_aug_16_1103,test6,2021.2.3,60.007650135278126,
,,2,0,2,0,,,,,,,,,,,,,,,,,,,,,,,,,,,,,,,,,,,,None,None,None,None,,,,,,,,,,,,,,,,,,,,,,,,,,001,2022_aug_16_1103,test6,2021.2.3,60.007650135278126,
,,3,0,3,0,,,,,,,,,,,,,,,,,,,,,,,,,,,,,,,,,,,,None,None,None,None,,,,,,,,,,,,,,,,,,,,,,,,,,001,2022_aug_16_1103,test6,2021.2.3,60.007650135278126,
,,,,,,,,,,,,,,,,,,,,,,,,,,,,,,,,,,,,,,,,,,,,,5.949277108000047,None,s,0.8954025809999848,5.949277108000047,None,,,,,,,,,,,,,,,,,,,,001,2022_aug_16_1103,test6,2021.2.3,60.007650135278126,
,,,,,,,,,,,,,,,,,,,,,,,,,,,,,,,,,,,,,,,,,,,,,,,,,,,-0.8888889,-0.49907407,0,0,0,0.006260021900061474,None,,,,,,,,,,,,,001,2022_aug_16_1103,test6,2021.2.3,60.007650135278126,
19,I was conscious of my body,,,,,0,0,0,18,,,,,,,,,,,,,,,,,,,,,,,,,,,,,,,,,,,,,,,,,,,,,,,,,5.949277108000047,None,None,None,None,None,None,None,None,None,None,,001,2022_aug_16_1103,test6,2021.2.3,60.007650135278126,
16,I felt comfortable,,,,,0,1,1,15,,,,,,,,,,,,,,,,,,,,,,,,,,,,,,,,,,,,,,,,,,,,,,,,,,,None,None,None,None,None,None,None,None,None,,001,2022_aug_16_1103,test6,2021.2.3,60.007650135278126,
31,I had difficulty remembering my thoughts,,,,,0,2,2,30,,,,,,,,,,,,,,,,,,,,,,,,,,,,,,,,,,,,,,,,,,,,,,,,,,,None,None,None,None,None,None,None,None,None,,001,2022_aug_16_1103,test6,2021.2.3,60.007650135278126,
2,I had rapidly switching thoughts,,,,,0,3,3,1,,,,,,,,,,,,,,,,,,,,,,,,,,,,,,,,,,,,,,,,,,,,,,,,,,,None,None,None,None,None,None,None,None,None,,001,2022_aug_16_1103,test6,2021.2.3,60.007650135278126,
3,I had difficulty holding on to my thoughts,,,,,0,4,4,2,,,,,,,,,,,,,,,,,,,,,,,,,,,,,,,,,,,,,,,,,,,,,,,,,,,None,None,None,None,None,None,None,None,None,,001,2022_aug_16_1103,test6,2021.2.3,60.007650135278126,
28,I had silent conversations,,,,,0,5,5,27,,,,,,,,,,,,,,,,,,,,,,,,,,,,,,,,,,,,,,,,,,,,,,,,,,,None,None,None,None,None,None,None,None,None,,001,2022_aug_16_1103,test6,2021.2.3,60.007650135278126,
9,I thought about myself,,,,,0,6,6,8,,,,,,,,,,,,,,,,,,,,,,,,,,,,,,,,,,,,,,,,,,,,,,,,,,,None,None,None,None,None,None,None,None,None,,001,2022_aug_16_1103,test6,2021.2.3,60.007650135278126,
30,I imagined talking to myself,,,,,0,7,7,29,,,,,,,,,,,,,,,,,,,,,,,,,,,,,,,,,,,,,,,,,,,,,,,,,,,None,None,None,None,None,None,None,None,None,,001,2022_aug_16_1103,test6,2021.2.3,60.007650135278126,
6,I thought about people I like,,,,,0,8,8,5,,,,,,,,,,,,,,,,,,,,,,,,,,,,,,,,,,,,,,,,,,,,,,,,,,,None,None,None,None,None,None,None,None,None,,001,2022_aug_16_1103,test6,2021.2.3,60.007650135278126,
35,I was able to rate the statements,,,,,0,9,9,34,,,,,,,,,,,,,,,,,,,,,,,,,,,,,,,,,,,,,,,,,,,,,,,,,,,None,None,None,None,None,None,None,None,None,,001,2022_aug_16_1103,test6,2021.2.3,60.007650135278126,
34,I had my eyes closed,,,,,0,10,10,33,,,,,,,,,,,,,,,,,,,,,,,,,,,,,,,,,,,,,,,,,,,,,,,,,,,None,None,None,None,None,None,None,None,None,,001,2022_aug_16_1103,test6,2021.2.3,60.007650135278126,
27,I pictured places,,,,,0,11,11,26,,,,,,,,,,,,,,,,,,,,,,,,,,,,,,,,,,,,,,,,,,,,,,,,,,,None,None,None,None,None,None,None,None,None,,001,2022_aug_16_1103,test6,2021.2.3,60.007650135278126,
20,I thought about my breathing,,,,,0,12,12,19,,,,,,,,,,,,,,,,,,,,,,,,,,,,,,,,,,,,,,,,,,,,,,,,,,,None,None,None,None,None,None,None,None,None,,001,2022_aug_16_1103,test6,2021.2.3,60.007650135278126,
21,I thought about my heartbeat,,,,,0,13,13,20,,,,,,,,,,,,,,,,,,,,,,,,,,,,,,,,,,,,,,,,,,,,,,,,,,,None,None,None,None,None,None,None,None,None,,001,2022_aug_16_1103,test6,2021.2.3,60.007650135278126,
1,I had busy thoughts,,,,,0,14,14,0,,,,,,,,,,,,,,,,,,,,,,,,,,,,,,,,,,,,,,,,,,,,,,,,,,,None,None,None,None,None,None,None,None,None,,001,2022_aug_16_1103,test6,2021.2.3,60.007650135278126,
33,I felt motivated to participate,,,,,0,15,15,32,,,,,,,,,,,,,,,,,,,,,,,,,,,,,,,,,,,,,,,,,,,,,,,,,,,None,None,None,None,None,None,None,None,None,,001,2022_aug_16_1103,test6,2021.2.3,60.007650135278126,
14,I felt sleepy,,,,,0,16,16,13,,,,,,,,,,,,,,,,,,,,,,,,,,,,,,,,,,,,,,,,,,,,,,,,,,,None,None,None,None,None,None,None,None,None,,001,2022_aug_16_1103,test6,2021.2.3,60.007650135278126,
25,I pictured events,,,,,0,17,17,24,,,,,,,,,,,,,,,,,,,,,,,,,,,,,,,,,,,,,,,,,,,,,,,,,,,None,None,None,None,None,None,None,None,None,,001,2022_aug_16_1103,test6,2021.2.3,60.007650135278126,
32,I had difficulty remembering my feelings,,,,,0,18,18,31,,,,,,,,,,,,,,,,,,,,,,,,,,,,,,,,,,,,,,,,,,,,,,,,,,,None,None,None,None,None,None,None,None,None,,001,2022_aug_16_1103,test6,2021.2.3,60.007650135278126,
24,I felt pain,,,,,0,19,19,23,,,,,,,,,,,,,,,,,,,,,,,,,,,,,,,,,,,,,,,,,,,,,,,,,,,None,None,None,None,None,None,None,None,None,,001,2022_aug_16_1103,test6,2021.2.3,60.007650135278126,
15,I had difficulty staying awake,,,,,0,20,20,14,,,,,,,,,,,,,,,,,,,,,,,,,,,,,,,,,,,,,,,,,,,,,,,,,,,None,None,None,None,None,None,None,None,None,,001,2022_aug_16_1103,test6,2021.2.3,60.007650135278126,
5,I placed myself in other peoples shoes,,,,,0,21,21,4,,,,,,,,,,,,,,,,,,,,,,,,,,,,,,,,,,,,,,,,,,,,,,,,,,,None,None,None,None,None,None,None,None,None,,001,2022_aug_16_1103,test6,2021.2.3,60.007650135278126,
29,I thought in words,,,,,0,22,22,28,,,,,,,,,,,,,,,,,,,,,,,,,,,,,,,,,,,,,,,,,,,,,,,,,,,None,None,None,None,None,None,None,None,None,,001,2022_aug_16_1103,test6,2021.2.3,60.007650135278126,
17,I felt relaxed,,,,,0,23,23,16,,,,,,,,,,,,,,,,,,,,,,,,,,,,,,,,,,,,,,,,,,,,,,,,,,,None,None,None,None,None,None,None,None,None,,001,2022_aug_16_1103,test6,2021.2.3,60.007650135278126,
10,I thought about things I need to do,,,,,0,24,24,9,,,,,,,,,,,,,,,,,,,,,,,,,,,,,,,,,,,,,,,,,,,,,,,,,,,None,None,None,None,None,None,None,None,None,,001,2022_aug_16_1103,test6,2021.2.3,60.007650135278126,
13,I felt tired,,,,,0,25,25,12,,,,,,,,,,,,,,,,,,,,,,,,,,,,,,,,,,,,,,,,,,,,,,,,,,,None,None,None,None,None,None,None,None,None,,001,2022_aug_16_1103,test6,2021.2.3,60.007650135278126,
11,I thought about solving problems,,,,,0,26,26,10,,,,,,,,,,,,,,,,,,,,,,,,,,,,,,,,,,,,,,,,,,,,,,,,,,,None,None,None,None,None,None,None,None,None,,001,2022_aug_16_1103,test6,2021.2.3,60.007650135278126,
4,I thought about others,,,,,0,27,27,3,,,,,,,,,,,,,,,,,,,,,,,,,,,,,,,,,,,,,,,,,,,,,,,,,,,None,None,None,None,None,None,None,None,None,,001,2022_aug_16_1103,test6,2021.2.3,60.007650135278126,
23,I thought about my health,,,,,0,28,28,22,,,,,,,,,,,,,,,,,,,,,,,,,,,,,,,,,,,,,,,,,,,,,,,,,,,None,None,None,None,None,None,None,None,None,,001,2022_aug_16_1103,test6,2021.2.3,60.007650135278126,
18,I felt happy,,,,,0,29,29,17,,,,,,,,,,,,,,,,,,,,,,,,,,,,,,,,,,,,,,,,,,,,,,,,,,,None,None,None,None,None,None,None,None,None,,001,2022_aug_16_1103,test6,2021.2.3,60.007650135278126,
7,I thought about my feelings,,,,,0,30,30,6,,,,,,,,,,,,,,,,,,,,,,,,,,,,,,,,,,,,,,,,,,,,,,,,,,,None,None,None,None,None,None,None,None,None,,001,2022_aug_16_1103,test6,2021.2.3,60.007650135278126,
12,I thought about the future,,,,,0,31,31,11,,,,,,,,,,,,,,,,,,,,,,,,,,,,,,,,,,,,,,,,,,,,,,,,,,,None,None,None,None,None,None,None,None,None,,001,2022_aug_16_1103,test6,2021.2.3,60.007650135278126,
26,I thought in images,,,,,0,32,32,25,,,,,,,,,,,,,,,,,,,,,,,,,,,,,,,,,,,,,,,,,,,,,,,,,,,None,None,None,None,None,None,None,None,None,,001,2022_aug_16_1103,test6,2021.2.3,60.007650135278126,
8,I thought about my behavior,,,,,0,33,33,7,,,,,,,,,,,,,,,,,,,,,,,,,,,,,,,,,,,,,,,,,,,,,,,,,,,None,None,None,None,None,None,None,None,None,,001,2022_aug_16_1103,test6,2021.2.3,60.007650135278126,
22,I felt ill,,,,,0,34,34,21,,,,,,,,,,,,,,,,,,,,,,,,,,,,,,,,,,,,,,,,,,,,,,,,,,,None,None,None,None,None,None,None,None,None,,001,2022_aug_16_1103,test6,2021.2.3,60.007650135278126,
